"success","trial_type","trial_index","time_elapsed","internal_node_id","sub_n","timeout","failed_images","failed_audio","failed_video","screen_id","rt","response","stimulus","view_history","trial","r1","r2","r3","w1","h1","w2","h2","w3","h3","display","tdd","tdo","tw","th","cw","ch","dw","dh","ta","ca","da","probe","csls","csss","clls","clss","sa","la","probe_rects"
"true","fullscreen","0","1847","0.0-0.0","5000","","","","","","","","","","","","","","","","","","","","","","","","","","","","","","","","","","","","","","",""
"true","preload","1","1936","0.0-1.0","5000","false","[]","[]","[]","img preload","","","","","","","","","","","","","","","","","","","","","","","","","","","","","","","","","",""
"","survey-html-form","2","4372","0.0-2.0","5000","","","","","enter-sub-number","2423","{""response"":""5000""}","","","","","","","","","","","","","","","","","","","","","","","","","","","","","","","",""
"","image-button-response","3","14018","0.0-3.0","5000","","","","","","9571","0","consent.png","","","","","","","","","","","","","","","","","","","","","","","","","","","","","","",""
"","html-button-response","4","22234","0.0-4.0","5000","","","","","intro mssg","8213","0","<div style= ""font-size:25px;"" <p> <strong> Welcome! </strong><br> <p style=""color:#8B0000; font-size:25px;""><strong> Please do NOT exit full screen until you are done with the experiment. </strong> </p><p style=""font-size:25px;color:#8B0000;""> <strong> Your data will be lost <br> if you try to go back or refresh the page after the experiment starts. Feel free to click ""previous"" during the instructions, however.</strong> </p><br><p> <strong> Thanks in advance for your contribution to our research! </strong></p>","","","","","","","","","","","","","","","","","","","","","","","","","","","","","","",""
"","instructions","5","70778","0.0-5.0","5000","","","","","instructions","48536","","","[{""page_index"":0,""viewing_time"":5472},{""page_index"":1,""viewing_time"":12496},{""page_index"":2,""viewing_time"":5256},{""page_index"":3,""viewing_time"":7511},{""page_index"":4,""viewing_time"":7687},{""page_index"":5,""viewing_time"":4953},{""page_index"":6,""viewing_time"":4393},{""page_index"":7,""viewing_time"":768}]","","","","","","","","","","","","","","","","","","","","","","","","","","","","","",""
"","canvas-keyboard-response","6","70983","0.0-6.0-0.0","5000","","","","","pre trial waiting period","null","null","","","catch","sh","sw","l","170","153","155","194","218","265","spektor","null","null","null","null","null","null","null","null","null","null","null","","180","200","260","200","36000","52000","[1,3]"
"","canvas-keyboard-response","7","71148","0.0-6.0-1.0","5000","","","","","clear_screen","null","null","","","catch","sh","sw","l","170","153","155","194","218","265","spektor","null","null","null","null","null","null","null","null","null","null","null","","180","200","260","200","36000","52000","[1,3]"
"","canvas-keyboard-response","8","72491","0.0-6.0-2.0","5000","","","","","rectangles","null","null","","","catch","sh","sw","l","170","153","155","194","218","265","spektor","null","null","null","null","null","null","null","null","null","null","null","","180","200","260","200","36000","52000","[1,3]"
"","canvas-keyboard-response","9","72653","0.0-6.0-3.0","5000","","","","","clear_screen","null","null","","","catch","sh","sw","l","170","153","155","194","218","265","spektor","null","null","null","null","null","null","null","null","null","null","null","","180","200","260","200","36000","52000","[1,3]"
"","canvas-keyboard-response","10","73944","0.0-6.0-4.0","5000","","","","","make choice","1276","3","","","catch","sh","sw","l","170","153","155","194","218","265","spektor","null","null","null","null","null","null","null","null","null","null","null","","180","200","260","200","36000","52000","[1,3]"
"","canvas-keyboard-response","11","74104","0.0-6.0-5.0","5000","","","","","clear_screen","null","null","","","catch","sh","sw","l","170","153","155","194","218","265","spektor","null","null","null","null","null","null","null","null","null","null","null","","180","200","260","200","36000","52000","[1,3]"
"","canvas-keyboard-response","12","74308","0.0-6.0-0.1","5000","","","","","pre trial waiting period","null","null","","","catch","sh","sw","l","202","211","142","165","258","179","spektor","null","null","null","null","null","null","null","null","null","null","null","","180","200","260","200","36000","52000","[1,3]"
"","canvas-keyboard-response","13","74470","0.0-6.0-1.1","5000","","","","","clear_screen","null","null","","","catch","sh","sw","l","202","211","142","165","258","179","spektor","null","null","null","null","null","null","null","null","null","null","null","","180","200","260","200","36000","52000","[1,3]"
"","canvas-keyboard-response","14","75810","0.0-6.0-2.1","5000","","","","","rectangles","null","null","","","catch","sh","sw","l","202","211","142","165","258","179","spektor","null","null","null","null","null","null","null","null","null","null","null","","180","200","260","200","36000","52000","[1,3]"
"","canvas-keyboard-response","15","75972","0.0-6.0-3.1","5000","","","","","clear_screen","null","null","","","catch","sh","sw","l","202","211","142","165","258","179","spektor","null","null","null","null","null","null","null","null","null","null","null","","180","200","260","200","36000","52000","[1,3]"
"","canvas-keyboard-response","16","76180","0.0-6.0-4.1","5000","","","","","make choice","197","1","","","catch","sh","sw","l","202","211","142","165","258","179","spektor","null","null","null","null","null","null","null","null","null","null","null","","180","200","260","200","36000","52000","[1,3]"
"","canvas-keyboard-response","17","76342","0.0-6.0-5.1","5000","","","","","clear_screen","null","null","","","catch","sh","sw","l","202","211","142","165","258","179","spektor","null","null","null","null","null","null","null","null","null","null","null","","180","200","260","200","36000","52000","[1,3]"
"","canvas-keyboard-response","18","76547","0.0-6.0-0.2","5000","","","","","pre trial waiting period","null","null","","","critical","t","d","c","164","240","164","240","240","164","trueblood","0","h","164","240","240","164","164","240","39360","39360","39360","tc","null","null","null","null","null","null","[1,3]"
"","canvas-keyboard-response","19","76707","0.0-6.0-1.2","5000","","","","","clear_screen","null","null","","","critical","t","d","c","164","240","164","240","240","164","trueblood","0","h","164","240","240","164","164","240","39360","39360","39360","tc","null","null","null","null","null","null","[1,3]"
"","canvas-keyboard-response","20","78047","0.0-6.0-2.2","5000","","","","","rectangles","null","null","","","critical","t","d","c","164","240","164","240","240","164","trueblood","0","h","164","240","240","164","164","240","39360","39360","39360","tc","null","null","null","null","null","null","[1,3]"
"","canvas-keyboard-response","21","78210","0.0-6.0-3.2","5000","","","","","clear_screen","null","null","","","critical","t","d","c","164","240","164","240","240","164","trueblood","0","h","164","240","240","164","164","240","39360","39360","39360","tc","null","null","null","null","null","null","[1,3]"
"","canvas-keyboard-response","22","78550","0.0-6.0-4.2","5000","","","","","make choice","326","1","","","critical","t","d","c","164","240","164","240","240","164","trueblood","0","h","164","240","240","164","164","240","39360","39360","39360","tc","null","null","null","null","null","null","[1,3]"
"","canvas-keyboard-response","23","78710","0.0-6.0-5.2","5000","","","","","clear_screen","null","null","","","critical","t","d","c","164","240","164","240","240","164","trueblood","0","h","164","240","240","164","164","240","39360","39360","39360","tc","null","null","null","null","null","null","[1,3]"
"","canvas-keyboard-response","24","78911","0.0-6.0-0.3","5000","","","","","pre trial waiting period","null","null","","","critical","t","c","d","240","164","164","240","220.0396","154.6796","spektor","0.14","w","240","164","164","240","220.0396","154.6796","39360","39360","34035.6388","tc","null","null","null","null","null","null","[1,2]"
"","canvas-keyboard-response","25","79071","0.0-6.0-1.3","5000","","","","","clear_screen","null","null","","","critical","t","c","d","240","164","164","240","220.0396","154.6796","spektor","0.14","w","240","164","164","240","220.0396","154.6796","39360","39360","34035.6388","tc","null","null","null","null","null","null","[1,2]"
"","canvas-keyboard-response","26","80405","0.0-6.0-2.3","5000","","","","","rectangles","null","null","","","critical","t","c","d","240","164","164","240","220.0396","154.6796","spektor","0.14","w","240","164","164","240","220.0396","154.6796","39360","39360","34035.6388","tc","null","null","null","null","null","null","[1,2]"
"","canvas-keyboard-response","27","80567","0.0-6.0-3.3","5000","","","","","clear_screen","null","null","","","critical","t","c","d","240","164","164","240","220.0396","154.6796","spektor","0.14","w","240","164","164","240","220.0396","154.6796","39360","39360","34035.6388","tc","null","null","null","null","null","null","[1,2]"
"","canvas-keyboard-response","28","80645","0.0-6.0-4.3","5000","","","","","make choice","65","2","","","critical","t","c","d","240","164","164","240","220.0396","154.6796","spektor","0.14","w","240","164","164","240","220.0396","154.6796","39360","39360","34035.6388","tc","null","null","null","null","null","null","[1,2]"
"","canvas-keyboard-response","29","80805","0.0-6.0-5.3","5000","","","","","clear_screen","null","null","","","critical","t","c","d","240","164","164","240","220.0396","154.6796","spektor","0.14","w","240","164","164","240","220.0396","154.6796","39360","39360","34035.6388","tc","null","null","null","null","null","null","[1,2]"
"","canvas-keyboard-response","30","81009","0.0-6.0-0.4","5000","","","","","pre trial waiting period","null","null","","","catch","sh","l","sw","166","206","220","272","212","209","spektor","null","null","null","null","null","null","null","null","null","null","null","","180","200","260","200","36000","52000","[2,3]"
"","canvas-keyboard-response","31","81170","0.0-6.0-1.4","5000","","","","","clear_screen","null","null","","","catch","sh","l","sw","166","206","220","272","212","209","spektor","null","null","null","null","null","null","null","null","null","null","null","","180","200","260","200","36000","52000","[2,3]"
"","canvas-keyboard-response","32","82508","0.0-6.0-2.4","5000","","","","","rectangles","null","null","","","catch","sh","l","sw","166","206","220","272","212","209","spektor","null","null","null","null","null","null","null","null","null","null","null","","180","200","260","200","36000","52000","[2,3]"
"","canvas-keyboard-response","33","82673","0.0-6.0-3.4","5000","","","","","clear_screen","null","null","","","catch","sh","l","sw","166","206","220","272","212","209","spektor","null","null","null","null","null","null","null","null","null","null","null","","180","200","260","200","36000","52000","[2,3]"
"","canvas-keyboard-response","34","82926","0.0-6.0-4.4","5000","","","","","make choice","242","2","","","catch","sh","l","sw","166","206","220","272","212","209","spektor","null","null","null","null","null","null","null","null","null","null","null","","180","200","260","200","36000","52000","[2,3]"
"","canvas-keyboard-response","35","83087","0.0-6.0-5.4","5000","","","","","clear_screen","null","null","","","catch","sh","l","sw","166","206","220","272","212","209","spektor","null","null","null","null","null","null","null","null","null","null","null","","180","200","260","200","36000","52000","[2,3]"
"","canvas-keyboard-response","36","83294","0.0-6.0-0.5","5000","","","","","pre trial waiting period","null","null","","","catch","l","sh","sw","222","165","221","166","194","175","trueblood","null","null","null","null","null","null","null","null","null","null","null","","180","200","260","200","36000","52000","[1,3]"
"","canvas-keyboard-response","37","83453","0.0-6.0-1.5","5000","","","","","clear_screen","null","null","","","catch","l","sh","sw","222","165","221","166","194","175","trueblood","null","null","null","null","null","null","null","null","null","null","null","","180","200","260","200","36000","52000","[1,3]"
"","canvas-keyboard-response","38","84794","0.0-6.0-2.5","5000","","","","","rectangles","null","null","","","catch","l","sh","sw","222","165","221","166","194","175","trueblood","null","null","null","null","null","null","null","null","null","null","null","","180","200","260","200","36000","52000","[1,3]"
"","canvas-keyboard-response","39","84956","0.0-6.0-3.5","5000","","","","","clear_screen","null","null","","","catch","l","sh","sw","222","165","221","166","194","175","trueblood","null","null","null","null","null","null","null","null","null","null","null","","180","200","260","200","36000","52000","[1,3]"
"","canvas-keyboard-response","40","86014","0.0-6.0-4.5","5000","","","","","make choice","1045","3","","","catch","l","sh","sw","222","165","221","166","194","175","trueblood","null","null","null","null","null","null","null","null","null","null","null","","180","200","260","200","36000","52000","[1,3]"
"","canvas-keyboard-response","41","86177","0.0-6.0-5.5","5000","","","","","clear_screen","null","null","","","catch","l","sh","sw","222","165","221","166","194","175","trueblood","null","null","null","null","null","null","null","null","null","null","null","","180","200","260","200","36000","52000","[1,3]"
"","canvas-keyboard-response","42","86385","0.0-6.0-0.6","5000","","","","","pre trial waiting period","null","null","","","critical","t","d","c","240","164","232.8713","160.6713","164","240","spektor","0.05","w","240","164","164","240","232.8713","160.6713","39360","39360","37415.7294","tc","null","null","null","null","null","null","[1,3]"
"","canvas-keyboard-response","43","86547","0.0-6.0-1.6","5000","","","","","clear_screen","null","null","","","critical","t","d","c","240","164","232.8713","160.6713","164","240","spektor","0.05","w","240","164","164","240","232.8713","160.6713","39360","39360","37415.7294","tc","null","null","null","null","null","null","[1,3]"
"","canvas-keyboard-response","44","87884","0.0-6.0-2.6","5000","","","","","rectangles","null","null","","","critical","t","d","c","240","164","232.8713","160.6713","164","240","spektor","0.05","w","240","164","164","240","232.8713","160.6713","39360","39360","37415.7294","tc","null","null","null","null","null","null","[1,3]"
"","canvas-keyboard-response","45","88047","0.0-6.0-3.6","5000","","","","","clear_screen","null","null","","","critical","t","d","c","240","164","232.8713","160.6713","164","240","spektor","0.05","w","240","164","164","240","232.8713","160.6713","39360","39360","37415.7294","tc","null","null","null","null","null","null","[1,3]"
"","canvas-keyboard-response","46","88669","0.0-6.0-4.6","5000","","","","","make choice","609","3","","","critical","t","d","c","240","164","232.8713","160.6713","164","240","spektor","0.05","w","240","164","164","240","232.8713","160.6713","39360","39360","37415.7294","tc","null","null","null","null","null","null","[1,3]"
"","canvas-keyboard-response","47","88831","0.0-6.0-5.6","5000","","","","","clear_screen","null","null","","","critical","t","d","c","240","164","232.8713","160.6713","164","240","spektor","0.05","w","240","164","164","240","232.8713","160.6713","39360","39360","37415.7294","tc","null","null","null","null","null","null","[1,3]"
"","canvas-keyboard-response","48","89038","0.0-6.0-0.7","5000","","","","","pre trial waiting period","null","null","","","critical","c","t","d","164","240","240","164","232.8713","160.6713","spektor","0.05","w","240","164","164","240","232.8713","160.6713","39360","39360","37415.7294","td","null","null","null","null","null","null","[2,3]"
"","canvas-keyboard-response","49","89199","0.0-6.0-1.7","5000","","","","","clear_screen","null","null","","","critical","c","t","d","164","240","240","164","232.8713","160.6713","spektor","0.05","w","240","164","164","240","232.8713","160.6713","39360","39360","37415.7294","td","null","null","null","null","null","null","[2,3]"
"","canvas-keyboard-response","50","90543","0.0-6.0-2.7","5000","","","","","rectangles","null","null","","","critical","c","t","d","164","240","240","164","232.8713","160.6713","spektor","0.05","w","240","164","164","240","232.8713","160.6713","39360","39360","37415.7294","td","null","null","null","null","null","null","[2,3]"
"","canvas-keyboard-response","51","90705","0.0-6.0-3.7","5000","","","","","clear_screen","null","null","","","critical","c","t","d","164","240","240","164","232.8713","160.6713","spektor","0.05","w","240","164","164","240","232.8713","160.6713","39360","39360","37415.7294","td","null","null","null","null","null","null","[2,3]"
"","canvas-keyboard-response","52","92157","0.0-6.0-4.7","5000","","","","","make choice","1440","2","","","critical","c","t","d","164","240","240","164","232.8713","160.6713","spektor","0.05","w","240","164","164","240","232.8713","160.6713","39360","39360","37415.7294","td","null","null","null","null","null","null","[2,3]"
"","canvas-keyboard-response","53","92320","0.0-6.0-5.7","5000","","","","","clear_screen","null","null","","","critical","c","t","d","164","240","240","164","232.8713","160.6713","spektor","0.05","w","240","164","164","240","232.8713","160.6713","39360","39360","37415.7294","td","null","null","null","null","null","null","[2,3]"
"","canvas-keyboard-response","54","92527","0.0-6.0-0.8","5000","","","","","pre trial waiting period","null","null","","","critical","d","t","c","154.6796","220.0396","164","240","240","164","spektor","0.14","h","164","240","240","164","154.6796","220.0396","39360","39360","34035.6388","dc","null","null","null","null","null","null","[1,3]"
"","canvas-keyboard-response","55","92687","0.0-6.0-1.8","5000","","","","","clear_screen","null","null","","","critical","d","t","c","154.6796","220.0396","164","240","240","164","spektor","0.14","h","164","240","240","164","154.6796","220.0396","39360","39360","34035.6388","dc","null","null","null","null","null","null","[1,3]"
"","canvas-keyboard-response","56","94026","0.0-6.0-2.8","5000","","","","","rectangles","null","null","","","critical","d","t","c","154.6796","220.0396","164","240","240","164","spektor","0.14","h","164","240","240","164","154.6796","220.0396","39360","39360","34035.6388","dc","null","null","null","null","null","null","[1,3]"
"","canvas-keyboard-response","57","94188","0.0-6.0-3.8","5000","","","","","clear_screen","null","null","","","critical","d","t","c","154.6796","220.0396","164","240","240","164","spektor","0.14","h","164","240","240","164","154.6796","220.0396","39360","39360","34035.6388","dc","null","null","null","null","null","null","[1,3]"
"","canvas-keyboard-response","58","95062","0.0-6.0-4.8","5000","","","","","make choice","865","3","","","critical","d","t","c","154.6796","220.0396","164","240","240","164","spektor","0.14","h","164","240","240","164","154.6796","220.0396","39360","39360","34035.6388","dc","null","null","null","null","null","null","[1,3]"
"","canvas-keyboard-response","59","95223","0.0-6.0-5.8","5000","","","","","clear_screen","null","null","","","critical","d","t","c","154.6796","220.0396","164","240","240","164","spektor","0.14","h","164","240","240","164","154.6796","220.0396","39360","39360","34035.6388","dc","null","null","null","null","null","null","[1,3]"
"","canvas-keyboard-response","60","95428","0.0-6.0-0.9","5000","","","","","pre trial waiting period","null","null","","","catch","sw","sh","l","180","200","192","144","164","274","spektor","null","null","null","null","null","null","null","null","null","null","null","","180","200","260","200","36000","52000","[1,3]"
"","canvas-keyboard-response","61","95588","0.0-6.0-1.9","5000","","","","","clear_screen","null","null","","","catch","sw","sh","l","180","200","192","144","164","274","spektor","null","null","null","null","null","null","null","null","null","null","null","","180","200","260","200","36000","52000","[1,3]"
"","canvas-keyboard-response","62","96931","0.0-6.0-2.9","5000","","","","","rectangles","null","null","","","catch","sw","sh","l","180","200","192","144","164","274","spektor","null","null","null","null","null","null","null","null","null","null","null","","180","200","260","200","36000","52000","[1,3]"
"","canvas-keyboard-response","63","97093","0.0-6.0-3.9","5000","","","","","clear_screen","null","null","","","catch","sw","sh","l","180","200","192","144","164","274","spektor","null","null","null","null","null","null","null","null","null","null","null","","180","200","260","200","36000","52000","[1,3]"
"","canvas-keyboard-response","64","97636","0.0-6.0-4.9","5000","","","","","make choice","528","3","","","catch","sw","sh","l","180","200","192","144","164","274","spektor","null","null","null","null","null","null","null","null","null","null","null","","180","200","260","200","36000","52000","[1,3]"
"","canvas-keyboard-response","65","97799","0.0-6.0-5.9","5000","","","","","clear_screen","null","null","","","catch","sw","sh","l","180","200","192","144","164","274","spektor","null","null","null","null","null","null","null","null","null","null","null","","180","200","260","200","36000","52000","[1,3]"
"","canvas-keyboard-response","66","98007","0.0-6.0-0.10","5000","","","","","pre trial waiting period","null","null","","","critical","t","c","d","240","164","164","240","232.8713","160.6713","trueblood","0.05","w","240","164","164","240","232.8713","160.6713","39360","39360","37415.7294","dc","null","null","null","null","null","null","[3,2]"
"","canvas-keyboard-response","67","98170","0.0-6.0-1.10","5000","","","","","clear_screen","null","null","","","critical","t","c","d","240","164","164","240","232.8713","160.6713","trueblood","0.05","w","240","164","164","240","232.8713","160.6713","39360","39360","37415.7294","dc","null","null","null","null","null","null","[3,2]"
"","canvas-keyboard-response","68","99510","0.0-6.0-2.10","5000","","","","","rectangles","null","null","","","critical","t","c","d","240","164","164","240","232.8713","160.6713","trueblood","0.05","w","240","164","164","240","232.8713","160.6713","39360","39360","37415.7294","dc","null","null","null","null","null","null","[3,2]"
"","canvas-keyboard-response","69","99673","0.0-6.0-3.10","5000","","","","","clear_screen","null","null","","","critical","t","c","d","240","164","164","240","232.8713","160.6713","trueblood","0.05","w","240","164","164","240","232.8713","160.6713","39360","39360","37415.7294","dc","null","null","null","null","null","null","[3,2]"
"","canvas-keyboard-response","70","101357","0.0-6.0-4.10","5000","","","","","make choice","1668","2","","","critical","t","c","d","240","164","164","240","232.8713","160.6713","trueblood","0.05","w","240","164","164","240","232.8713","160.6713","39360","39360","37415.7294","dc","null","null","null","null","null","null","[3,2]"
"","canvas-keyboard-response","71","101519","0.0-6.0-5.10","5000","","","","","clear_screen","null","null","","","critical","t","c","d","240","164","164","240","232.8713","160.6713","trueblood","0.05","w","240","164","164","240","232.8713","160.6713","39360","39360","37415.7294","dc","null","null","null","null","null","null","[3,2]"
"","canvas-keyboard-response","72","101729","0.0-6.0-0.11","5000","","","","","pre trial waiting period","null","null","","","catch","sh","l","sw","176","214","294","190","196","200","spektor","null","null","null","null","null","null","null","null","null","null","null","","180","200","260","200","36000","52000","[1,2]"
"","canvas-keyboard-response","73","101890","0.0-6.0-1.11","5000","","","","","clear_screen","null","null","","","catch","sh","l","sw","176","214","294","190","196","200","spektor","null","null","null","null","null","null","null","null","null","null","null","","180","200","260","200","36000","52000","[1,2]"
"","canvas-keyboard-response","74","103227","0.0-6.0-2.11","5000","","","","","rectangles","null","null","","","catch","sh","l","sw","176","214","294","190","196","200","spektor","null","null","null","null","null","null","null","null","null","null","null","","180","200","260","200","36000","52000","[1,2]"
"","canvas-keyboard-response","75","103392","0.0-6.0-3.11","5000","","","","","clear_screen","null","null","","","catch","sh","l","sw","176","214","294","190","196","200","spektor","null","null","null","null","null","null","null","null","null","null","null","","180","200","260","200","36000","52000","[1,2]"
"","canvas-keyboard-response","76","104030","0.0-6.0-4.11","5000","","","","","make choice","624","2","","","catch","sh","l","sw","176","214","294","190","196","200","spektor","null","null","null","null","null","null","null","null","null","null","null","","180","200","260","200","36000","52000","[1,2]"
"","canvas-keyboard-response","77","104191","0.0-6.0-5.11","5000","","","","","clear_screen","null","null","","","catch","sh","l","sw","176","214","294","190","196","200","spektor","null","null","null","null","null","null","null","null","null","null","null","","180","200","260","200","36000","52000","[1,2]"
"","canvas-keyboard-response","78","104399","0.0-6.0-0.12","5000","","","","","pre trial waiting period","null","null","","","critical","t","d","c","164","240","162.6685","237.1485","240","164","spektor","0.02","h","164","240","240","164","162.6685","237.1485","39360","39360","38576.5967","tc","null","null","null","null","null","null","[1,3]"
"","canvas-keyboard-response","79","104559","0.0-6.0-1.12","5000","","","","","clear_screen","null","null","","","critical","t","d","c","164","240","162.6685","237.1485","240","164","spektor","0.02","h","164","240","240","164","162.6685","237.1485","39360","39360","38576.5967","tc","null","null","null","null","null","null","[1,3]"
"","canvas-keyboard-response","80","105901","0.0-6.0-2.12","5000","","","","","rectangles","null","null","","","critical","t","d","c","164","240","162.6685","237.1485","240","164","spektor","0.02","h","164","240","240","164","162.6685","237.1485","39360","39360","38576.5967","tc","null","null","null","null","null","null","[1,3]"
"","canvas-keyboard-response","81","106067","0.0-6.0-3.12","5000","","","","","clear_screen","null","null","","","critical","t","d","c","164","240","162.6685","237.1485","240","164","spektor","0.02","h","164","240","240","164","162.6685","237.1485","39360","39360","38576.5967","tc","null","null","null","null","null","null","[1,3]"
"","canvas-keyboard-response","82","107413","0.0-6.0-4.12","5000","","","","","make choice","1329","3","","","critical","t","d","c","164","240","162.6685","237.1485","240","164","spektor","0.02","h","164","240","240","164","162.6685","237.1485","39360","39360","38576.5967","tc","null","null","null","null","null","null","[1,3]"
"","canvas-keyboard-response","83","107577","0.0-6.0-5.12","5000","","","","","clear_screen","null","null","","","critical","t","d","c","164","240","162.6685","237.1485","240","164","spektor","0.02","h","164","240","240","164","162.6685","237.1485","39360","39360","38576.5967","tc","null","null","null","null","null","null","[1,3]"
"","canvas-keyboard-response","84","107787","0.0-6.0-0.13","5000","","","","","pre trial waiting period","null","null","","","critical","t","d","c","164","240","160.6713","232.8713","240","164","trueblood","0.05","h","164","240","240","164","160.6713","232.8713","39360","39360","37415.7294","td","null","null","null","null","null","null","[1,2]"
"","canvas-keyboard-response","85","107950","0.0-6.0-1.13","5000","","","","","clear_screen","null","null","","","critical","t","d","c","164","240","160.6713","232.8713","240","164","trueblood","0.05","h","164","240","240","164","160.6713","232.8713","39360","39360","37415.7294","td","null","null","null","null","null","null","[1,2]"
"","canvas-keyboard-response","86","109289","0.0-6.0-2.13","5000","","","","","rectangles","null","null","","","critical","t","d","c","164","240","160.6713","232.8713","240","164","trueblood","0.05","h","164","240","240","164","160.6713","232.8713","39360","39360","37415.7294","td","null","null","null","null","null","null","[1,2]"
"","canvas-keyboard-response","87","109456","0.0-6.0-3.13","5000","","","","","clear_screen","null","null","","","critical","t","d","c","164","240","160.6713","232.8713","240","164","trueblood","0.05","h","164","240","240","164","160.6713","232.8713","39360","39360","37415.7294","td","null","null","null","null","null","null","[1,2]"
"","canvas-keyboard-response","88","109933","0.0-6.0-4.13","5000","","","","","make choice","464","1","","","critical","t","d","c","164","240","160.6713","232.8713","240","164","trueblood","0.05","h","164","240","240","164","160.6713","232.8713","39360","39360","37415.7294","td","null","null","null","null","null","null","[1,2]"
"","canvas-keyboard-response","89","110095","0.0-6.0-5.13","5000","","","","","clear_screen","null","null","","","critical","t","d","c","164","240","160.6713","232.8713","240","164","trueblood","0.05","h","164","240","240","164","160.6713","232.8713","39360","39360","37415.7294","td","null","null","null","null","null","null","[1,2]"
"","canvas-keyboard-response","90","110303","0.0-6.0-0.14","5000","","","","","pre trial waiting period","null","null","","","critical","t","c","d","240","164","164","240","240","164","trueblood","0","w","240","164","164","240","240","164","39360","39360","39360","tc","null","null","null","null","null","null","[1,2]"
"","canvas-keyboard-response","91","110465","0.0-6.0-1.14","5000","","","","","clear_screen","null","null","","","critical","t","c","d","240","164","164","240","240","164","trueblood","0","w","240","164","164","240","240","164","39360","39360","39360","tc","null","null","null","null","null","null","[1,2]"
"","canvas-keyboard-response","92","111806","0.0-6.0-2.14","5000","","","","","rectangles","null","null","","","critical","t","c","d","240","164","164","240","240","164","trueblood","0","w","240","164","164","240","240","164","39360","39360","39360","tc","null","null","null","null","null","null","[1,2]"
"","canvas-keyboard-response","93","111971","0.0-6.0-3.14","5000","","","","","clear_screen","null","null","","","critical","t","c","d","240","164","164","240","240","164","trueblood","0","w","240","164","164","240","240","164","39360","39360","39360","tc","null","null","null","null","null","null","[1,2]"
"","canvas-keyboard-response","94","112782","0.0-6.0-4.14","5000","","","","","make choice","797","1","","","critical","t","c","d","240","164","164","240","240","164","trueblood","0","w","240","164","164","240","240","164","39360","39360","39360","tc","null","null","null","null","null","null","[1,2]"
"","canvas-keyboard-response","95","112944","0.0-6.0-5.14","5000","","","","","clear_screen","null","null","","","critical","t","c","d","240","164","164","240","240","164","trueblood","0","w","240","164","164","240","240","164","39360","39360","39360","tc","null","null","null","null","null","null","[1,2]"
"","canvas-keyboard-response","96","113152","0.0-6.0-0.15","5000","","","","","pre trial waiting period","null","null","","","critical","d","t","c","237.1485","162.6685","240","164","164","240","trueblood","0.02","w","240","164","164","240","237.1485","162.6685","39360","39360","38576.5967","tc","null","null","null","null","null","null","[2,3]"
"","canvas-keyboard-response","97","113312","0.0-6.0-1.15","5000","","","","","clear_screen","null","null","","","critical","d","t","c","237.1485","162.6685","240","164","164","240","trueblood","0.02","w","240","164","164","240","237.1485","162.6685","39360","39360","38576.5967","tc","null","null","null","null","null","null","[2,3]"
"","canvas-keyboard-response","98","114652","0.0-6.0-2.15","5000","","","","","rectangles","null","null","","","critical","d","t","c","237.1485","162.6685","240","164","164","240","trueblood","0.02","w","240","164","164","240","237.1485","162.6685","39360","39360","38576.5967","tc","null","null","null","null","null","null","[2,3]"
"","canvas-keyboard-response","99","114817","0.0-6.0-3.15","5000","","","","","clear_screen","null","null","","","critical","d","t","c","237.1485","162.6685","240","164","164","240","trueblood","0.02","w","240","164","164","240","237.1485","162.6685","39360","39360","38576.5967","tc","null","null","null","null","null","null","[2,3]"
"","canvas-keyboard-response","100","115469","0.0-6.0-4.15","5000","","","","","make choice","636","2","","","critical","d","t","c","237.1485","162.6685","240","164","164","240","trueblood","0.02","w","240","164","164","240","237.1485","162.6685","39360","39360","38576.5967","tc","null","null","null","null","null","null","[2,3]"
"","canvas-keyboard-response","101","115635","0.0-6.0-5.15","5000","","","","","clear_screen","null","null","","","critical","d","t","c","237.1485","162.6685","240","164","164","240","trueblood","0.02","w","240","164","164","240","237.1485","162.6685","39360","39360","38576.5967","tc","null","null","null","null","null","null","[2,3]"
"","canvas-keyboard-response","102","115844","0.0-6.0-0.16","5000","","","","","pre trial waiting period","null","null","","","critical","d","t","c","237.1485","162.6685","240","164","164","240","trueblood","0.02","w","240","164","164","240","237.1485","162.6685","39360","39360","38576.5967","td","null","null","null","null","null","null","[2,1]"
"","canvas-keyboard-response","103","116006","0.0-6.0-1.16","5000","","","","","clear_screen","null","null","","","critical","d","t","c","237.1485","162.6685","240","164","164","240","trueblood","0.02","w","240","164","164","240","237.1485","162.6685","39360","39360","38576.5967","td","null","null","null","null","null","null","[2,1]"
"","canvas-keyboard-response","104","117347","0.0-6.0-2.16","5000","","","","","rectangles","null","null","","","critical","d","t","c","237.1485","162.6685","240","164","164","240","trueblood","0.02","w","240","164","164","240","237.1485","162.6685","39360","39360","38576.5967","td","null","null","null","null","null","null","[2,1]"
"","canvas-keyboard-response","105","117511","0.0-6.0-3.16","5000","","","","","clear_screen","null","null","","","critical","d","t","c","237.1485","162.6685","240","164","164","240","trueblood","0.02","w","240","164","164","240","237.1485","162.6685","39360","39360","38576.5967","td","null","null","null","null","null","null","[2,1]"
"","canvas-keyboard-response","106","118438","0.0-6.0-4.16","5000","","","","","make choice","914","1","","","critical","d","t","c","237.1485","162.6685","240","164","164","240","trueblood","0.02","w","240","164","164","240","237.1485","162.6685","39360","39360","38576.5967","td","null","null","null","null","null","null","[2,1]"
"","canvas-keyboard-response","107","118601","0.0-6.0-5.16","5000","","","","","clear_screen","null","null","","","critical","d","t","c","237.1485","162.6685","240","164","164","240","trueblood","0.02","w","240","164","164","240","237.1485","162.6685","39360","39360","38576.5967","td","null","null","null","null","null","null","[2,1]"
"","canvas-keyboard-response","108","118813","0.0-6.0-0.17","5000","","","","","pre trial waiting period","null","null","","","critical","d","c","t","227.1683","158.0083","164","240","240","164","trueblood","0.09","w","240","164","164","240","227.1683","158.0083","39360","39360","35894.4834","dc","null","null","null","null","null","null","[1,2]"
"","canvas-keyboard-response","109","118973","0.0-6.0-1.17","5000","","","","","clear_screen","null","null","","","critical","d","c","t","227.1683","158.0083","164","240","240","164","trueblood","0.09","w","240","164","164","240","227.1683","158.0083","39360","39360","35894.4834","dc","null","null","null","null","null","null","[1,2]"
"","canvas-keyboard-response","110","120313","0.0-6.0-2.17","5000","","","","","rectangles","null","null","","","critical","d","c","t","227.1683","158.0083","164","240","240","164","trueblood","0.09","w","240","164","164","240","227.1683","158.0083","39360","39360","35894.4834","dc","null","null","null","null","null","null","[1,2]"
"","canvas-keyboard-response","111","120481","0.0-6.0-3.17","5000","","","","","clear_screen","null","null","","","critical","d","c","t","227.1683","158.0083","164","240","240","164","trueblood","0.09","w","240","164","164","240","227.1683","158.0083","39360","39360","35894.4834","dc","null","null","null","null","null","null","[1,2]"
"","canvas-keyboard-response","112","121077","0.0-6.0-4.17","5000","","","","","make choice","584","2","","","critical","d","c","t","227.1683","158.0083","164","240","240","164","trueblood","0.09","w","240","164","164","240","227.1683","158.0083","39360","39360","35894.4834","dc","null","null","null","null","null","null","[1,2]"
"","canvas-keyboard-response","113","121243","0.0-6.0-5.17","5000","","","","","clear_screen","null","null","","","critical","d","c","t","227.1683","158.0083","164","240","240","164","trueblood","0.09","w","240","164","164","240","227.1683","158.0083","39360","39360","35894.4834","dc","null","null","null","null","null","null","[1,2]"
"","canvas-keyboard-response","114","121455","0.0-6.0-0.18","5000","","","","","pre trial waiting period","null","null","","","critical","d","c","t","162.6685","237.1485","240","164","164","240","spektor","0.02","h","164","240","240","164","162.6685","237.1485","39360","39360","38576.5967","dc","null","null","null","null","null","null","[1,2]"
"","canvas-keyboard-response","115","121617","0.0-6.0-1.18","5000","","","","","clear_screen","null","null","","","critical","d","c","t","162.6685","237.1485","240","164","164","240","spektor","0.02","h","164","240","240","164","162.6685","237.1485","39360","39360","38576.5967","dc","null","null","null","null","null","null","[1,2]"
"","canvas-keyboard-response","116","122959","0.0-6.0-2.18","5000","","","","","rectangles","null","null","","","critical","d","c","t","162.6685","237.1485","240","164","164","240","spektor","0.02","h","164","240","240","164","162.6685","237.1485","39360","39360","38576.5967","dc","null","null","null","null","null","null","[1,2]"
"","canvas-keyboard-response","117","123125","0.0-6.0-3.18","5000","","","","","clear_screen","null","null","","","critical","d","c","t","162.6685","237.1485","240","164","164","240","spektor","0.02","h","164","240","240","164","162.6685","237.1485","39360","39360","38576.5967","dc","null","null","null","null","null","null","[1,2]"
"","canvas-keyboard-response","118","123534","0.0-6.0-4.18","5000","","","","","make choice","392","1","","","critical","d","c","t","162.6685","237.1485","240","164","164","240","spektor","0.02","h","164","240","240","164","162.6685","237.1485","39360","39360","38576.5967","dc","null","null","null","null","null","null","[1,2]"
"","canvas-keyboard-response","119","123698","0.0-6.0-5.18","5000","","","","","clear_screen","null","null","","","critical","d","c","t","162.6685","237.1485","240","164","164","240","spektor","0.02","h","164","240","240","164","162.6685","237.1485","39360","39360","38576.5967","dc","null","null","null","null","null","null","[1,2]"
"","canvas-keyboard-response","120","123906","0.0-6.0-0.19","5000","","","","","pre trial waiting period","null","null","","","catch","sw","l","sh","180","200","258","162","230","185","trueblood","null","null","null","null","null","null","null","null","null","null","null","","180","200","260","200","36000","52000","[2,3]"
"","canvas-keyboard-response","121","124067","0.0-6.0-1.19","5000","","","","","clear_screen","null","null","","","catch","sw","l","sh","180","200","258","162","230","185","trueblood","null","null","null","null","null","null","null","null","null","null","null","","180","200","260","200","36000","52000","[2,3]"
"","canvas-keyboard-response","122","125408","0.0-6.0-2.19","5000","","","","","rectangles","null","null","","","catch","sw","l","sh","180","200","258","162","230","185","trueblood","null","null","null","null","null","null","null","null","null","null","null","","180","200","260","200","36000","52000","[2,3]"
"","canvas-keyboard-response","123","125572","0.0-6.0-3.19","5000","","","","","clear_screen","null","null","","","catch","sw","l","sh","180","200","258","162","230","185","trueblood","null","null","null","null","null","null","null","null","null","null","null","","180","200","260","200","36000","52000","[2,3]"
"","canvas-keyboard-response","124","126629","0.0-6.0-4.19","5000","","","","","make choice","1043","2","","","catch","sw","l","sh","180","200","258","162","230","185","trueblood","null","null","null","null","null","null","null","null","null","null","null","","180","200","260","200","36000","52000","[2,3]"
"","canvas-keyboard-response","125","126793","0.0-6.0-5.19","5000","","","","","clear_screen","null","null","","","catch","sw","l","sh","180","200","258","162","230","185","trueblood","null","null","null","null","null","null","null","null","null","null","null","","180","200","260","200","36000","52000","[2,3]"
"","canvas-keyboard-response","126","127004","0.0-6.0-0.20","5000","","","","","pre trial waiting period","null","null","","","critical","t","d","c","240","164","227.1683","158.0083","164","240","trueblood","0.09","w","240","164","164","240","227.1683","158.0083","39360","39360","35894.4834","tc","null","null","null","null","null","null","[1,3]"
"","canvas-keyboard-response","127","127164","0.0-6.0-1.20","5000","","","","","clear_screen","null","null","","","critical","t","d","c","240","164","227.1683","158.0083","164","240","trueblood","0.09","w","240","164","164","240","227.1683","158.0083","39360","39360","35894.4834","tc","null","null","null","null","null","null","[1,3]"
"","canvas-keyboard-response","128","128504","0.0-6.0-2.20","5000","","","","","rectangles","null","null","","","critical","t","d","c","240","164","227.1683","158.0083","164","240","trueblood","0.09","w","240","164","164","240","227.1683","158.0083","39360","39360","35894.4834","tc","null","null","null","null","null","null","[1,3]"
"","canvas-keyboard-response","129","128668","0.0-6.0-3.20","5000","","","","","clear_screen","null","null","","","critical","t","d","c","240","164","227.1683","158.0083","164","240","trueblood","0.09","w","240","164","164","240","227.1683","158.0083","39360","39360","35894.4834","tc","null","null","null","null","null","null","[1,3]"
"","canvas-keyboard-response","130","129277","0.0-6.0-4.20","5000","","","","","make choice","590","1","","","critical","t","d","c","240","164","227.1683","158.0083","164","240","trueblood","0.09","w","240","164","164","240","227.1683","158.0083","39360","39360","35894.4834","tc","null","null","null","null","null","null","[1,3]"
"","canvas-keyboard-response","131","129443","0.0-6.0-5.20","5000","","","","","clear_screen","null","null","","","critical","t","d","c","240","164","227.1683","158.0083","164","240","trueblood","0.09","w","240","164","164","240","227.1683","158.0083","39360","39360","35894.4834","tc","null","null","null","null","null","null","[1,3]"
"","canvas-keyboard-response","132","129655","0.0-6.0-0.21","5000","","","","","pre trial waiting period","null","null","","","critical","t","c","d","164","240","240","164","160.6713","232.8713","spektor","0.05","h","164","240","240","164","160.6713","232.8713","39360","39360","37415.7294","dc","null","null","null","null","null","null","[3,2]"
"","canvas-keyboard-response","133","129815","0.0-6.0-1.21","5000","","","","","clear_screen","null","null","","","critical","t","c","d","164","240","240","164","160.6713","232.8713","spektor","0.05","h","164","240","240","164","160.6713","232.8713","39360","39360","37415.7294","dc","null","null","null","null","null","null","[3,2]"
"","canvas-keyboard-response","134","131160","0.0-6.0-2.21","5000","","","","","rectangles","null","null","","","critical","t","c","d","164","240","240","164","160.6713","232.8713","spektor","0.05","h","164","240","240","164","160.6713","232.8713","39360","39360","37415.7294","dc","null","null","null","null","null","null","[3,2]"
"","canvas-keyboard-response","135","131321","0.0-6.0-3.21","5000","","","","","clear_screen","null","null","","","critical","t","c","d","164","240","240","164","160.6713","232.8713","spektor","0.05","h","164","240","240","164","160.6713","232.8713","39360","39360","37415.7294","dc","null","null","null","null","null","null","[3,2]"
"","canvas-keyboard-response","136","132901","0.0-6.0-4.21","5000","","","","","make choice","1566","2","","","critical","t","c","d","164","240","240","164","160.6713","232.8713","spektor","0.05","h","164","240","240","164","160.6713","232.8713","39360","39360","37415.7294","dc","null","null","null","null","null","null","[3,2]"
"","canvas-keyboard-response","137","133068","0.0-6.0-5.21","5000","","","","","clear_screen","null","null","","","critical","t","c","d","164","240","240","164","160.6713","232.8713","spektor","0.05","h","164","240","240","164","160.6713","232.8713","39360","39360","37415.7294","dc","null","null","null","null","null","null","[3,2]"
"","canvas-keyboard-response","138","133280","0.0-6.0-0.22","5000","","","","","pre trial waiting period","null","null","","","critical","d","t","c","237.1485","162.6685","240","164","164","240","trueblood","0.02","w","240","164","164","240","237.1485","162.6685","39360","39360","38576.5967","dc","null","null","null","null","null","null","[1,3]"
"","canvas-keyboard-response","139","133436","0.0-6.0-1.22","5000","","","","","clear_screen","null","null","","","critical","d","t","c","237.1485","162.6685","240","164","164","240","trueblood","0.02","w","240","164","164","240","237.1485","162.6685","39360","39360","38576.5967","dc","null","null","null","null","null","null","[1,3]"
"","canvas-keyboard-response","140","134777","0.0-6.0-2.22","5000","","","","","rectangles","null","null","","","critical","d","t","c","237.1485","162.6685","240","164","164","240","trueblood","0.02","w","240","164","164","240","237.1485","162.6685","39360","39360","38576.5967","dc","null","null","null","null","null","null","[1,3]"
"","canvas-keyboard-response","141","134945","0.0-6.0-3.22","5000","","","","","clear_screen","null","null","","","critical","d","t","c","237.1485","162.6685","240","164","164","240","trueblood","0.02","w","240","164","164","240","237.1485","162.6685","39360","39360","38576.5967","dc","null","null","null","null","null","null","[1,3]"
"","canvas-keyboard-response","142","136150","0.0-6.0-4.22","5000","","","","","make choice","1190","1","","","critical","d","t","c","237.1485","162.6685","240","164","164","240","trueblood","0.02","w","240","164","164","240","237.1485","162.6685","39360","39360","38576.5967","dc","null","null","null","null","null","null","[1,3]"
"","canvas-keyboard-response","143","136314","0.0-6.0-5.22","5000","","","","","clear_screen","null","null","","","critical","d","t","c","237.1485","162.6685","240","164","164","240","trueblood","0.02","w","240","164","164","240","237.1485","162.6685","39360","39360","38576.5967","dc","null","null","null","null","null","null","[1,3]"
"","canvas-keyboard-response","144","136525","0.0-6.0-0.23","5000","","","","","pre trial waiting period","null","null","","","critical","t","d","c","164","240","162.6685","237.1485","240","164","spektor","0.02","h","164","240","240","164","162.6685","237.1485","39360","39360","38576.5967","td","null","null","null","null","null","null","[1,2]"
"","canvas-keyboard-response","145","136686","0.0-6.0-1.23","5000","","","","","clear_screen","null","null","","","critical","t","d","c","164","240","162.6685","237.1485","240","164","spektor","0.02","h","164","240","240","164","162.6685","237.1485","39360","39360","38576.5967","td","null","null","null","null","null","null","[1,2]"
"","canvas-keyboard-response","146","138029","0.0-6.0-2.23","5000","","","","","rectangles","null","null","","","critical","t","d","c","164","240","162.6685","237.1485","240","164","spektor","0.02","h","164","240","240","164","162.6685","237.1485","39360","39360","38576.5967","td","null","null","null","null","null","null","[1,2]"
"","canvas-keyboard-response","147","138197","0.0-6.0-3.23","5000","","","","","clear_screen","null","null","","","critical","t","d","c","164","240","162.6685","237.1485","240","164","spektor","0.02","h","164","240","240","164","162.6685","237.1485","39360","39360","38576.5967","td","null","null","null","null","null","null","[1,2]"
"","canvas-keyboard-response","148","138885","0.0-6.0-4.23","5000","","","","","make choice","673","1","","","critical","t","d","c","164","240","162.6685","237.1485","240","164","spektor","0.02","h","164","240","240","164","162.6685","237.1485","39360","39360","38576.5967","td","null","null","null","null","null","null","[1,2]"
"","canvas-keyboard-response","149","139050","0.0-6.0-5.23","5000","","","","","clear_screen","null","null","","","critical","t","d","c","164","240","162.6685","237.1485","240","164","spektor","0.02","h","164","240","240","164","162.6685","237.1485","39360","39360","38576.5967","td","null","null","null","null","null","null","[1,2]"
"","canvas-keyboard-response","150","139265","0.0-6.0-0.24","5000","","","","","pre trial waiting period","null","null","","","critical","t","c","d","240","164","164","240","227.1683","158.0083","trueblood","0.09","w","240","164","164","240","227.1683","158.0083","39360","39360","35894.4834","td","null","null","null","null","null","null","[1,3]"
"","canvas-keyboard-response","151","139423","0.0-6.0-1.24","5000","","","","","clear_screen","null","null","","","critical","t","c","d","240","164","164","240","227.1683","158.0083","trueblood","0.09","w","240","164","164","240","227.1683","158.0083","39360","39360","35894.4834","td","null","null","null","null","null","null","[1,3]"
"","canvas-keyboard-response","152","140764","0.0-6.0-2.24","5000","","","","","rectangles","null","null","","","critical","t","c","d","240","164","164","240","227.1683","158.0083","trueblood","0.09","w","240","164","164","240","227.1683","158.0083","39360","39360","35894.4834","td","null","null","null","null","null","null","[1,3]"
"","canvas-keyboard-response","153","140930","0.0-6.0-3.24","5000","","","","","clear_screen","null","null","","","critical","t","c","d","240","164","164","240","227.1683","158.0083","trueblood","0.09","w","240","164","164","240","227.1683","158.0083","39360","39360","35894.4834","td","null","null","null","null","null","null","[1,3]"
"","canvas-keyboard-response","154","142373","0.0-6.0-4.24","5000","","","","","make choice","1426","3","","","critical","t","c","d","240","164","164","240","227.1683","158.0083","trueblood","0.09","w","240","164","164","240","227.1683","158.0083","39360","39360","35894.4834","td","null","null","null","null","null","null","[1,3]"
"","canvas-keyboard-response","155","142541","0.0-6.0-5.24","5000","","","","","clear_screen","null","null","","","critical","t","c","d","240","164","164","240","227.1683","158.0083","trueblood","0.09","w","240","164","164","240","227.1683","158.0083","39360","39360","35894.4834","td","null","null","null","null","null","null","[1,3]"
"","canvas-keyboard-response","156","142751","0.0-6.0-0.25","5000","","","","","pre trial waiting period","null","null","","","catch","sw","l","sh","180","200","166","231","199","152","spektor","null","null","null","null","null","null","null","null","null","null","null","","180","200","260","200","36000","52000","[2,3]"
"","canvas-keyboard-response","157","142912","0.0-6.0-1.25","5000","","","","","clear_screen","null","null","","","catch","sw","l","sh","180","200","166","231","199","152","spektor","null","null","null","null","null","null","null","null","null","null","null","","180","200","260","200","36000","52000","[2,3]"
"","canvas-keyboard-response","158","144252","0.0-6.0-2.25","5000","","","","","rectangles","null","null","","","catch","sw","l","sh","180","200","166","231","199","152","spektor","null","null","null","null","null","null","null","null","null","null","null","","180","200","260","200","36000","52000","[2,3]"
"","canvas-keyboard-response","159","144418","0.0-6.0-3.25","5000","","","","","clear_screen","null","null","","","catch","sw","l","sh","180","200","166","231","199","152","spektor","null","null","null","null","null","null","null","null","null","null","null","","180","200","260","200","36000","52000","[2,3]"
"","canvas-keyboard-response","160","145238","0.0-6.0-4.25","5000","","","","","make choice","803","2","","","catch","sw","l","sh","180","200","166","231","199","152","spektor","null","null","null","null","null","null","null","null","null","null","null","","180","200","260","200","36000","52000","[2,3]"
"","canvas-keyboard-response","161","145404","0.0-6.0-5.25","5000","","","","","clear_screen","null","null","","","catch","sw","l","sh","180","200","166","231","199","152","spektor","null","null","null","null","null","null","null","null","null","null","null","","180","200","260","200","36000","52000","[2,3]"
"","canvas-keyboard-response","162","145616","0.0-6.0-0.26","5000","","","","","pre trial waiting period","null","null","","","critical","t","d","c","240","164","240","164","164","240","spektor","0","w","240","164","164","240","240","164","39360","39360","39360","tc","null","null","null","null","null","null","[1,3]"
"","canvas-keyboard-response","163","145777","0.0-6.0-1.26","5000","","","","","clear_screen","null","null","","","critical","t","d","c","240","164","240","164","164","240","spektor","0","w","240","164","164","240","240","164","39360","39360","39360","tc","null","null","null","null","null","null","[1,3]"
"","canvas-keyboard-response","164","147120","0.0-6.0-2.26","5000","","","","","rectangles","null","null","","","critical","t","d","c","240","164","240","164","164","240","spektor","0","w","240","164","164","240","240","164","39360","39360","39360","tc","null","null","null","null","null","null","[1,3]"
"","canvas-keyboard-response","165","147289","0.0-6.0-3.26","5000","","","","","clear_screen","null","null","","","critical","t","d","c","240","164","240","164","164","240","spektor","0","w","240","164","164","240","240","164","39360","39360","39360","tc","null","null","null","null","null","null","[1,3]"
"","canvas-keyboard-response","166","147902","0.0-6.0-4.26","5000","","","","","make choice","597","1","","","critical","t","d","c","240","164","240","164","164","240","spektor","0","w","240","164","164","240","240","164","39360","39360","39360","tc","null","null","null","null","null","null","[1,3]"
"","canvas-keyboard-response","167","148067","0.0-6.0-5.26","5000","","","","","clear_screen","null","null","","","critical","t","d","c","240","164","240","164","164","240","spektor","0","w","240","164","164","240","240","164","39360","39360","39360","tc","null","null","null","null","null","null","[1,3]"
"","canvas-keyboard-response","168","148281","0.0-6.0-0.27","5000","","","","","pre trial waiting period","null","null","","","critical","d","t","c","162.6685","237.1485","164","240","240","164","trueblood","0.02","h","164","240","240","164","162.6685","237.1485","39360","39360","38576.5967","td","null","null","null","null","null","null","[2,1]"
"","canvas-keyboard-response","169","148442","0.0-6.0-1.27","5000","","","","","clear_screen","null","null","","","critical","d","t","c","162.6685","237.1485","164","240","240","164","trueblood","0.02","h","164","240","240","164","162.6685","237.1485","39360","39360","38576.5967","td","null","null","null","null","null","null","[2,1]"
"","canvas-keyboard-response","170","149786","0.0-6.0-2.27","5000","","","","","rectangles","null","null","","","critical","d","t","c","162.6685","237.1485","164","240","240","164","trueblood","0.02","h","164","240","240","164","162.6685","237.1485","39360","39360","38576.5967","td","null","null","null","null","null","null","[2,1]"
"","canvas-keyboard-response","171","149954","0.0-6.0-3.27","5000","","","","","clear_screen","null","null","","","critical","d","t","c","162.6685","237.1485","164","240","240","164","trueblood","0.02","h","164","240","240","164","162.6685","237.1485","39360","39360","38576.5967","td","null","null","null","null","null","null","[2,1]"
"","canvas-keyboard-response","172","150214","0.0-6.0-4.27","5000","","","","","make choice","242","1","","","critical","d","t","c","162.6685","237.1485","164","240","240","164","trueblood","0.02","h","164","240","240","164","162.6685","237.1485","39360","39360","38576.5967","td","null","null","null","null","null","null","[2,1]"
"","canvas-keyboard-response","173","150383","0.0-6.0-5.27","5000","","","","","clear_screen","null","null","","","critical","d","t","c","162.6685","237.1485","164","240","240","164","trueblood","0.02","h","164","240","240","164","162.6685","237.1485","39360","39360","38576.5967","td","null","null","null","null","null","null","[2,1]"
"","canvas-keyboard-response","174","150594","0.0-6.0-0.28","5000","","","","","pre trial waiting period","null","null","","","critical","c","t","d","164","240","240","164","232.8713","160.6713","spektor","0.05","w","240","164","164","240","232.8713","160.6713","39360","39360","37415.7294","dc","null","null","null","null","null","null","[3,1]"
"","canvas-keyboard-response","175","150754","0.0-6.0-1.28","5000","","","","","clear_screen","null","null","","","critical","c","t","d","164","240","240","164","232.8713","160.6713","spektor","0.05","w","240","164","164","240","232.8713","160.6713","39360","39360","37415.7294","dc","null","null","null","null","null","null","[3,1]"
"","canvas-keyboard-response","176","152098","0.0-6.0-2.28","5000","","","","","rectangles","null","null","","","critical","c","t","d","164","240","240","164","232.8713","160.6713","spektor","0.05","w","240","164","164","240","232.8713","160.6713","39360","39360","37415.7294","dc","null","null","null","null","null","null","[3,1]"
"","canvas-keyboard-response","177","152266","0.0-6.0-3.28","5000","","","","","clear_screen","null","null","","","critical","c","t","d","164","240","240","164","232.8713","160.6713","spektor","0.05","w","240","164","164","240","232.8713","160.6713","39360","39360","37415.7294","dc","null","null","null","null","null","null","[3,1]"
"","canvas-keyboard-response","178","152771","0.0-6.0-4.28","5000","","","","","make choice","489","3","","","critical","c","t","d","164","240","240","164","232.8713","160.6713","spektor","0.05","w","240","164","164","240","232.8713","160.6713","39360","39360","37415.7294","dc","null","null","null","null","null","null","[3,1]"
"","canvas-keyboard-response","179","152935","0.0-6.0-5.28","5000","","","","","clear_screen","null","null","","","critical","c","t","d","164","240","240","164","232.8713","160.6713","spektor","0.05","w","240","164","164","240","232.8713","160.6713","39360","39360","37415.7294","dc","null","null","null","null","null","null","[3,1]"
"","canvas-keyboard-response","180","153148","0.0-6.0-0.29","5000","","","","","pre trial waiting period","null","null","","","critical","d","c","t","164","240","240","164","164","240","spektor","0","h","164","240","240","164","164","240","39360","39360","39360","dc","null","null","null","null","null","null","[1,2]"
"","canvas-keyboard-response","181","153311","0.0-6.0-1.29","5000","","","","","clear_screen","null","null","","","critical","d","c","t","164","240","240","164","164","240","spektor","0","h","164","240","240","164","164","240","39360","39360","39360","dc","null","null","null","null","null","null","[1,2]"
"","canvas-keyboard-response","182","154654","0.0-6.0-2.29","5000","","","","","rectangles","null","null","","","critical","d","c","t","164","240","240","164","164","240","spektor","0","h","164","240","240","164","164","240","39360","39360","39360","dc","null","null","null","null","null","null","[1,2]"
"","canvas-keyboard-response","183","154821","0.0-6.0-3.29","5000","","","","","clear_screen","null","null","","","critical","d","c","t","164","240","240","164","164","240","spektor","0","h","164","240","240","164","164","240","39360","39360","39360","dc","null","null","null","null","null","null","[1,2]"
"","canvas-keyboard-response","184","155389","0.0-6.0-4.29","5000","","","","","make choice","553","1","","","critical","d","c","t","164","240","240","164","164","240","spektor","0","h","164","240","240","164","164","240","39360","39360","39360","dc","null","null","null","null","null","null","[1,2]"
"","canvas-keyboard-response","185","155555","0.0-6.0-5.29","5000","","","","","clear_screen","null","null","","","critical","d","c","t","164","240","240","164","164","240","spektor","0","h","164","240","240","164","164","240","39360","39360","39360","dc","null","null","null","null","null","null","[1,2]"
"","canvas-keyboard-response","186","155768","0.0-6.0-0.30","5000","","","","","pre trial waiting period","null","null","","","catch","l","sh","sw","248","230","179","152","197","216","spektor","null","null","null","null","null","null","null","null","null","null","null","","180","200","260","200","36000","52000","[1,3]"
"","canvas-keyboard-response","187","155928","0.0-6.0-1.30","5000","","","","","clear_screen","null","null","","","catch","l","sh","sw","248","230","179","152","197","216","spektor","null","null","null","null","null","null","null","null","null","null","null","","180","200","260","200","36000","52000","[1,3]"
"","canvas-keyboard-response","188","157271","0.0-6.0-2.30","5000","","","","","rectangles","null","null","","","catch","l","sh","sw","248","230","179","152","197","216","spektor","null","null","null","null","null","null","null","null","null","null","null","","180","200","260","200","36000","52000","[1,3]"
"","canvas-keyboard-response","189","157437","0.0-6.0-3.30","5000","","","","","clear_screen","null","null","","","catch","l","sh","sw","248","230","179","152","197","216","spektor","null","null","null","null","null","null","null","null","null","null","null","","180","200","260","200","36000","52000","[1,3]"
"","canvas-keyboard-response","190","157956","0.0-6.0-4.30","5000","","","","","make choice","503","1","","","catch","l","sh","sw","248","230","179","152","197","216","spektor","null","null","null","null","null","null","null","null","null","null","null","","180","200","260","200","36000","52000","[1,3]"
"","canvas-keyboard-response","191","158121","0.0-6.0-5.30","5000","","","","","clear_screen","null","null","","","catch","l","sh","sw","248","230","179","152","197","216","spektor","null","null","null","null","null","null","null","null","null","null","null","","180","200","260","200","36000","52000","[1,3]"
"","canvas-keyboard-response","192","158332","0.0-6.0-0.31","5000","","","","","pre trial waiting period","null","null","","","catch","l","sw","sh","166","265","212","198","226","199","trueblood","null","null","null","null","null","null","null","null","null","null","null","","180","200","260","200","36000","52000","[1,2]"
"","canvas-keyboard-response","193","158491","0.0-6.0-1.31","5000","","","","","clear_screen","null","null","","","catch","l","sw","sh","166","265","212","198","226","199","trueblood","null","null","null","null","null","null","null","null","null","null","null","","180","200","260","200","36000","52000","[1,2]"
"","canvas-keyboard-response","194","159838","0.0-6.0-2.31","5000","","","","","rectangles","null","null","","","catch","l","sw","sh","166","265","212","198","226","199","trueblood","null","null","null","null","null","null","null","null","null","null","null","","180","200","260","200","36000","52000","[1,2]"
"","canvas-keyboard-response","195","160006","0.0-6.0-3.31","5000","","","","","clear_screen","null","null","","","catch","l","sw","sh","166","265","212","198","226","199","trueblood","null","null","null","null","null","null","null","null","null","null","null","","180","200","260","200","36000","52000","[1,2]"
"","canvas-keyboard-response","196","161382","0.0-6.0-4.31","5000","","","","","make choice","1357","1","","","catch","l","sw","sh","166","265","212","198","226","199","trueblood","null","null","null","null","null","null","null","null","null","null","null","","180","200","260","200","36000","52000","[1,2]"
"","canvas-keyboard-response","197","161547","0.0-6.0-5.31","5000","","","","","clear_screen","null","null","","","catch","l","sw","sh","166","265","212","198","226","199","trueblood","null","null","null","null","null","null","null","null","null","null","null","","180","200","260","200","36000","52000","[1,2]"
"","canvas-keyboard-response","198","161761","0.0-6.0-0.32","5000","","","","","pre trial waiting period","null","null","","","critical","d","c","t","232.8713","160.6713","164","240","240","164","trueblood","0.05","w","240","164","164","240","232.8713","160.6713","39360","39360","37415.7294","tc","null","null","null","null","null","null","[3,2]"
"","canvas-keyboard-response","199","161922","0.0-6.0-1.32","5000","","","","","clear_screen","null","null","","","critical","d","c","t","232.8713","160.6713","164","240","240","164","trueblood","0.05","w","240","164","164","240","232.8713","160.6713","39360","39360","37415.7294","tc","null","null","null","null","null","null","[3,2]"
"","canvas-keyboard-response","200","163265","0.0-6.0-2.32","5000","","","","","rectangles","null","null","","","critical","d","c","t","232.8713","160.6713","164","240","240","164","trueblood","0.05","w","240","164","164","240","232.8713","160.6713","39360","39360","37415.7294","tc","null","null","null","null","null","null","[3,2]"
"","canvas-keyboard-response","201","163433","0.0-6.0-3.32","5000","","","","","clear_screen","null","null","","","critical","d","c","t","232.8713","160.6713","164","240","240","164","trueblood","0.05","w","240","164","164","240","232.8713","160.6713","39360","39360","37415.7294","tc","null","null","null","null","null","null","[3,2]"
"","canvas-keyboard-response","202","164517","0.0-6.0-4.32","5000","","","","","make choice","1066","2","","","critical","d","c","t","232.8713","160.6713","164","240","240","164","trueblood","0.05","w","240","164","164","240","232.8713","160.6713","39360","39360","37415.7294","tc","null","null","null","null","null","null","[3,2]"
"","canvas-keyboard-response","203","164684","0.0-6.0-5.32","5000","","","","","clear_screen","null","null","","","critical","d","c","t","232.8713","160.6713","164","240","240","164","trueblood","0.05","w","240","164","164","240","232.8713","160.6713","39360","39360","37415.7294","tc","null","null","null","null","null","null","[3,2]"
"","canvas-keyboard-response","204","164899","0.0-6.0-0.33","5000","","","","","pre trial waiting period","null","null","","","catch","sw","sh","l","180","200","163","205","240","180","trueblood","null","null","null","null","null","null","null","null","null","null","null","","180","200","260","200","36000","52000","[2,3]"
"","canvas-keyboard-response","205","165061","0.0-6.0-1.33","5000","","","","","clear_screen","null","null","","","catch","sw","sh","l","180","200","163","205","240","180","trueblood","null","null","null","null","null","null","null","null","null","null","null","","180","200","260","200","36000","52000","[2,3]"
"","canvas-keyboard-response","206","166406","0.0-6.0-2.33","5000","","","","","rectangles","null","null","","","catch","sw","sh","l","180","200","163","205","240","180","trueblood","null","null","null","null","null","null","null","null","null","null","null","","180","200","260","200","36000","52000","[2,3]"
"","canvas-keyboard-response","207","166575","0.0-6.0-3.33","5000","","","","","clear_screen","null","null","","","catch","sw","sh","l","180","200","163","205","240","180","trueblood","null","null","null","null","null","null","null","null","null","null","null","","180","200","260","200","36000","52000","[2,3]"
"","canvas-keyboard-response","208","167526","0.0-6.0-4.33","5000","","","","","make choice","934","3","","","catch","sw","sh","l","180","200","163","205","240","180","trueblood","null","null","null","null","null","null","null","null","null","null","null","","180","200","260","200","36000","52000","[2,3]"
"","canvas-keyboard-response","209","167691","0.0-6.0-5.33","5000","","","","","clear_screen","null","null","","","catch","sw","sh","l","180","200","163","205","240","180","trueblood","null","null","null","null","null","null","null","null","null","null","null","","180","200","260","200","36000","52000","[2,3]"
"","canvas-keyboard-response","210","167905","0.0-6.0-0.34","5000","","","","","pre trial waiting period","null","null","","","critical","t","d","c","164","240","164","240","240","164","spektor","0","h","164","240","240","164","164","240","39360","39360","39360","td","null","null","null","null","null","null","[1,2]"
"","canvas-keyboard-response","211","168069","0.0-6.0-1.34","5000","","","","","clear_screen","null","null","","","critical","t","d","c","164","240","164","240","240","164","spektor","0","h","164","240","240","164","164","240","39360","39360","39360","td","null","null","null","null","null","null","[1,2]"
"","canvas-keyboard-response","212","169412","0.0-6.0-2.34","5000","","","","","rectangles","null","null","","","critical","t","d","c","164","240","164","240","240","164","spektor","0","h","164","240","240","164","164","240","39360","39360","39360","td","null","null","null","null","null","null","[1,2]"
"","canvas-keyboard-response","213","169582","0.0-6.0-3.34","5000","","","","","clear_screen","null","null","","","critical","t","d","c","164","240","164","240","240","164","spektor","0","h","164","240","240","164","164","240","39360","39360","39360","td","null","null","null","null","null","null","[1,2]"
"","canvas-keyboard-response","214","170269","0.0-6.0-4.34","5000","","","","","make choice","665","2","","","critical","t","d","c","164","240","164","240","240","164","spektor","0","h","164","240","240","164","164","240","39360","39360","39360","td","null","null","null","null","null","null","[1,2]"
"","canvas-keyboard-response","215","170436","0.0-6.0-5.34","5000","","","","","clear_screen","null","null","","","critical","t","d","c","164","240","164","240","240","164","spektor","0","h","164","240","240","164","164","240","39360","39360","39360","td","null","null","null","null","null","null","[1,2]"
"","canvas-keyboard-response","216","170649","0.0-6.0-0.35","5000","","","","","pre trial waiting period","null","null","","","critical","d","t","c","158.0083","227.1683","164","240","240","164","spektor","0.09","h","164","240","240","164","158.0083","227.1683","39360","39360","35894.4834","tc","null","null","null","null","null","null","[2,3]"
"","canvas-keyboard-response","217","170809","0.0-6.0-1.35","5000","","","","","clear_screen","null","null","","","critical","d","t","c","158.0083","227.1683","164","240","240","164","spektor","0.09","h","164","240","240","164","158.0083","227.1683","39360","39360","35894.4834","tc","null","null","null","null","null","null","[2,3]"
"","canvas-keyboard-response","218","172154","0.0-6.0-2.35","5000","","","","","rectangles","null","null","","","critical","d","t","c","158.0083","227.1683","164","240","240","164","spektor","0.09","h","164","240","240","164","158.0083","227.1683","39360","39360","35894.4834","tc","null","null","null","null","null","null","[2,3]"
"","canvas-keyboard-response","219","172321","0.0-6.0-3.35","5000","","","","","clear_screen","null","null","","","critical","d","t","c","158.0083","227.1683","164","240","240","164","spektor","0.09","h","164","240","240","164","158.0083","227.1683","39360","39360","35894.4834","tc","null","null","null","null","null","null","[2,3]"
"","canvas-keyboard-response","220","173101","0.0-6.0-4.35","5000","","","","","make choice","764","2","","","critical","d","t","c","158.0083","227.1683","164","240","240","164","spektor","0.09","h","164","240","240","164","158.0083","227.1683","39360","39360","35894.4834","tc","null","null","null","null","null","null","[2,3]"
"","canvas-keyboard-response","221","173270","0.0-6.0-5.35","5000","","","","","clear_screen","null","null","","","critical","d","t","c","158.0083","227.1683","164","240","240","164","spektor","0.09","h","164","240","240","164","158.0083","227.1683","39360","39360","35894.4834","tc","null","null","null","null","null","null","[2,3]"
"","canvas-keyboard-response","222","173485","0.0-6.0-0.36","5000","","","","","pre trial waiting period","null","null","","","critical","t","c","d","240","164","164","240","220.0396","154.6796","trueblood","0.14","w","240","164","164","240","220.0396","154.6796","39360","39360","34035.6388","dc","null","null","null","null","null","null","[3,2]"
"","canvas-keyboard-response","223","173647","0.0-6.0-1.36","5000","","","","","clear_screen","null","null","","","critical","t","c","d","240","164","164","240","220.0396","154.6796","trueblood","0.14","w","240","164","164","240","220.0396","154.6796","39360","39360","34035.6388","dc","null","null","null","null","null","null","[3,2]"
"","canvas-keyboard-response","224","174991","0.0-6.0-2.36","5000","","","","","rectangles","null","null","","","critical","t","c","d","240","164","164","240","220.0396","154.6796","trueblood","0.14","w","240","164","164","240","220.0396","154.6796","39360","39360","34035.6388","dc","null","null","null","null","null","null","[3,2]"
"","canvas-keyboard-response","225","175162","0.0-6.0-3.36","5000","","","","","clear_screen","null","null","","","critical","t","c","d","240","164","164","240","220.0396","154.6796","trueblood","0.14","w","240","164","164","240","220.0396","154.6796","39360","39360","34035.6388","dc","null","null","null","null","null","null","[3,2]"
"","canvas-keyboard-response","226","175869","0.0-6.0-4.36","5000","","","","","make choice","690","2","","","critical","t","c","d","240","164","164","240","220.0396","154.6796","trueblood","0.14","w","240","164","164","240","220.0396","154.6796","39360","39360","34035.6388","dc","null","null","null","null","null","null","[3,2]"
"","canvas-keyboard-response","227","176036","0.0-6.0-5.36","5000","","","","","clear_screen","null","null","","","critical","t","c","d","240","164","164","240","220.0396","154.6796","trueblood","0.14","w","240","164","164","240","220.0396","154.6796","39360","39360","34035.6388","dc","null","null","null","null","null","null","[3,2]"
"","canvas-keyboard-response","228","176252","0.0-6.0-0.37","5000","","","","","pre trial waiting period","null","null","","","critical","c","t","d","240","164","164","240","164","240","trueblood","0","h","164","240","240","164","164","240","39360","39360","39360","dc","null","null","null","null","null","null","[3,1]"
"","canvas-keyboard-response","229","176412","0.0-6.0-1.37","5000","","","","","clear_screen","null","null","","","critical","c","t","d","240","164","164","240","164","240","trueblood","0","h","164","240","240","164","164","240","39360","39360","39360","dc","null","null","null","null","null","null","[3,1]"
"","canvas-keyboard-response","230","177759","0.0-6.0-2.37","5000","","","","","rectangles","null","null","","","critical","c","t","d","240","164","164","240","164","240","trueblood","0","h","164","240","240","164","164","240","39360","39360","39360","dc","null","null","null","null","null","null","[3,1]"
"","canvas-keyboard-response","231","177927","0.0-6.0-3.37","5000","","","","","clear_screen","null","null","","","critical","c","t","d","240","164","164","240","164","240","trueblood","0","h","164","240","240","164","164","240","39360","39360","39360","dc","null","null","null","null","null","null","[3,1]"
"","canvas-keyboard-response","232","178148","0.0-6.0-4.37","5000","","","","","make choice","203","1","","","critical","c","t","d","240","164","164","240","164","240","trueblood","0","h","164","240","240","164","164","240","39360","39360","39360","dc","null","null","null","null","null","null","[3,1]"
"","canvas-keyboard-response","233","178315","0.0-6.0-5.37","5000","","","","","clear_screen","null","null","","","critical","c","t","d","240","164","164","240","164","240","trueblood","0","h","164","240","240","164","164","240","39360","39360","39360","dc","null","null","null","null","null","null","[3,1]"
"","canvas-keyboard-response","234","178527","0.0-6.0-0.38","5000","","","","","pre trial waiting period","null","null","","","critical","c","d","t","164","240","227.1683","158.0083","240","164","spektor","0.09","w","240","164","164","240","227.1683","158.0083","39360","39360","35894.4834","td","null","null","null","null","null","null","[3,2]"
"","canvas-keyboard-response","235","178688","0.0-6.0-1.38","5000","","","","","clear_screen","null","null","","","critical","c","d","t","164","240","227.1683","158.0083","240","164","spektor","0.09","w","240","164","164","240","227.1683","158.0083","39360","39360","35894.4834","td","null","null","null","null","null","null","[3,2]"
"","canvas-keyboard-response","236","180034","0.0-6.0-2.38","5000","","","","","rectangles","null","null","","","critical","c","d","t","164","240","227.1683","158.0083","240","164","spektor","0.09","w","240","164","164","240","227.1683","158.0083","39360","39360","35894.4834","td","null","null","null","null","null","null","[3,2]"
"","canvas-keyboard-response","237","180204","0.0-6.0-3.38","5000","","","","","clear_screen","null","null","","","critical","c","d","t","164","240","227.1683","158.0083","240","164","spektor","0.09","w","240","164","164","240","227.1683","158.0083","39360","39360","35894.4834","td","null","null","null","null","null","null","[3,2]"
"","canvas-keyboard-response","238","180877","0.0-6.0-4.38","5000","","","","","make choice","652","2","","","critical","c","d","t","164","240","227.1683","158.0083","240","164","spektor","0.09","w","240","164","164","240","227.1683","158.0083","39360","39360","35894.4834","td","null","null","null","null","null","null","[3,2]"
"","canvas-keyboard-response","239","181043","0.0-6.0-5.38","5000","","","","","clear_screen","null","null","","","critical","c","d","t","164","240","227.1683","158.0083","240","164","spektor","0.09","w","240","164","164","240","227.1683","158.0083","39360","39360","35894.4834","td","null","null","null","null","null","null","[3,2]"
"","canvas-keyboard-response","240","181261","0.0-6.0-0.39","5000","","","","","pre trial waiting period","null","null","","","catch","sh","l","sw","217","193","222","288","183","180","trueblood","null","null","null","null","null","null","null","null","null","null","null","","180","200","260","200","36000","52000","[1,2]"
"","canvas-keyboard-response","241","181425","0.0-6.0-1.39","5000","","","","","clear_screen","null","null","","","catch","sh","l","sw","217","193","222","288","183","180","trueblood","null","null","null","null","null","null","null","null","null","null","null","","180","200","260","200","36000","52000","[1,2]"
"","canvas-keyboard-response","242","182767","0.0-6.0-2.39","5000","","","","","rectangles","null","null","","","catch","sh","l","sw","217","193","222","288","183","180","trueblood","null","null","null","null","null","null","null","null","null","null","null","","180","200","260","200","36000","52000","[1,2]"
"","canvas-keyboard-response","243","182936","0.0-6.0-3.39","5000","","","","","clear_screen","null","null","","","catch","sh","l","sw","217","193","222","288","183","180","trueblood","null","null","null","null","null","null","null","null","null","null","null","","180","200","260","200","36000","52000","[1,2]"
"","canvas-keyboard-response","244","183822","0.0-6.0-4.39","5000","","","","","make choice","872","2","","","catch","sh","l","sw","217","193","222","288","183","180","trueblood","null","null","null","null","null","null","null","null","null","null","null","","180","200","260","200","36000","52000","[1,2]"
"","canvas-keyboard-response","245","183989","0.0-6.0-5.39","5000","","","","","clear_screen","null","null","","","catch","sh","l","sw","217","193","222","288","183","180","trueblood","null","null","null","null","null","null","null","null","null","null","null","","180","200","260","200","36000","52000","[1,2]"
"","canvas-keyboard-response","246","184203","0.0-6.0-0.40","5000","","","","","pre trial waiting period","null","null","","","catch","sh","sw","l","168","162","145","222","232","206","spektor","null","null","null","null","null","null","null","null","null","null","null","","180","200","260","200","36000","52000","[2,3]"
"","canvas-keyboard-response","247","184362","0.0-6.0-1.40","5000","","","","","clear_screen","null","null","","","catch","sh","sw","l","168","162","145","222","232","206","spektor","null","null","null","null","null","null","null","null","null","null","null","","180","200","260","200","36000","52000","[2,3]"
"","canvas-keyboard-response","248","185708","0.0-6.0-2.40","5000","","","","","rectangles","null","null","","","catch","sh","sw","l","168","162","145","222","232","206","spektor","null","null","null","null","null","null","null","null","null","null","null","","180","200","260","200","36000","52000","[2,3]"
"","canvas-keyboard-response","249","185876","0.0-6.0-3.40","5000","","","","","clear_screen","null","null","","","catch","sh","sw","l","168","162","145","222","232","206","spektor","null","null","null","null","null","null","null","null","null","null","null","","180","200","260","200","36000","52000","[2,3]"
"","canvas-keyboard-response","250","186087","0.0-6.0-4.40","5000","","","","","make choice","194","3","","","catch","sh","sw","l","168","162","145","222","232","206","spektor","null","null","null","null","null","null","null","null","null","null","null","","180","200","260","200","36000","52000","[2,3]"
"","canvas-keyboard-response","251","186255","0.0-6.0-5.40","5000","","","","","clear_screen","null","null","","","catch","sh","sw","l","168","162","145","222","232","206","spektor","null","null","null","null","null","null","null","null","null","null","null","","180","200","260","200","36000","52000","[2,3]"
"","canvas-keyboard-response","252","186469","0.0-6.0-0.41","5000","","","","","pre trial waiting period","null","null","","","catch","l","sw","sh","180","236","178","238","176","191","trueblood","null","null","null","null","null","null","null","null","null","null","null","","180","200","260","200","36000","52000","[1,3]"
"","canvas-keyboard-response","253","186628","0.0-6.0-1.41","5000","","","","","clear_screen","null","null","","","catch","l","sw","sh","180","236","178","238","176","191","trueblood","null","null","null","null","null","null","null","null","null","null","null","","180","200","260","200","36000","52000","[1,3]"
"","canvas-keyboard-response","254","187972","0.0-6.0-2.41","5000","","","","","rectangles","null","null","","","catch","l","sw","sh","180","236","178","238","176","191","trueblood","null","null","null","null","null","null","null","null","null","null","null","","180","200","260","200","36000","52000","[1,3]"
"","canvas-keyboard-response","255","188141","0.0-6.0-3.41","5000","","","","","clear_screen","null","null","","","catch","l","sw","sh","180","236","178","238","176","191","trueblood","null","null","null","null","null","null","null","null","null","null","null","","180","200","260","200","36000","52000","[1,3]"
"","canvas-keyboard-response","256","189445","0.0-6.0-4.41","5000","","","","","make choice","1285","1","","","catch","l","sw","sh","180","236","178","238","176","191","trueblood","null","null","null","null","null","null","null","null","null","null","null","","180","200","260","200","36000","52000","[1,3]"
"","canvas-keyboard-response","257","189615","0.0-6.0-5.41","5000","","","","","clear_screen","null","null","","","catch","l","sw","sh","180","236","178","238","176","191","trueblood","null","null","null","null","null","null","null","null","null","null","null","","180","200","260","200","36000","52000","[1,3]"
"","canvas-keyboard-response","258","189830","0.0-6.0-0.42","5000","","","","","pre trial waiting period","null","null","","","catch","sw","l","sh","180","200","207","250","219","153","trueblood","null","null","null","null","null","null","null","null","null","null","null","","180","200","260","200","36000","52000","[1,2]"
"","canvas-keyboard-response","259","189991","0.0-6.0-1.42","5000","","","","","clear_screen","null","null","","","catch","sw","l","sh","180","200","207","250","219","153","trueblood","null","null","null","null","null","null","null","null","null","null","null","","180","200","260","200","36000","52000","[1,2]"
"","canvas-keyboard-response","260","191335","0.0-6.0-2.42","5000","","","","","rectangles","null","null","","","catch","sw","l","sh","180","200","207","250","219","153","trueblood","null","null","null","null","null","null","null","null","null","null","null","","180","200","260","200","36000","52000","[1,2]"
"","canvas-keyboard-response","261","191503","0.0-6.0-3.42","5000","","","","","clear_screen","null","null","","","catch","sw","l","sh","180","200","207","250","219","153","trueblood","null","null","null","null","null","null","null","null","null","null","null","","180","200","260","200","36000","52000","[1,2]"
"","canvas-keyboard-response","262","192020","0.0-6.0-4.42","5000","","","","","make choice","496","2","","","catch","sw","l","sh","180","200","207","250","219","153","trueblood","null","null","null","null","null","null","null","null","null","null","null","","180","200","260","200","36000","52000","[1,2]"
"","canvas-keyboard-response","263","192185","0.0-6.0-5.42","5000","","","","","clear_screen","null","null","","","catch","sw","l","sh","180","200","207","250","219","153","trueblood","null","null","null","null","null","null","null","null","null","null","null","","180","200","260","200","36000","52000","[1,2]"
"","canvas-keyboard-response","264","192394","0.0-6.0-0.43","5000","","","","","pre trial waiting period","null","null","","","critical","d","c","t","154.6796","220.0396","240","164","164","240","spektor","0.14","h","164","240","240","164","154.6796","220.0396","39360","39360","34035.6388","td","null","null","null","null","null","null","[3,1]"
"","canvas-keyboard-response","265","192557","0.0-6.0-1.43","5000","","","","","clear_screen","null","null","","","critical","d","c","t","154.6796","220.0396","240","164","164","240","spektor","0.14","h","164","240","240","164","154.6796","220.0396","39360","39360","34035.6388","td","null","null","null","null","null","null","[3,1]"
"","canvas-keyboard-response","266","193904","0.0-6.0-2.43","5000","","","","","rectangles","null","null","","","critical","d","c","t","154.6796","220.0396","240","164","164","240","spektor","0.14","h","164","240","240","164","154.6796","220.0396","39360","39360","34035.6388","td","null","null","null","null","null","null","[3,1]"
"","canvas-keyboard-response","267","194073","0.0-6.0-3.43","5000","","","","","clear_screen","null","null","","","critical","d","c","t","154.6796","220.0396","240","164","164","240","spektor","0.14","h","164","240","240","164","154.6796","220.0396","39360","39360","34035.6388","td","null","null","null","null","null","null","[3,1]"
"","canvas-keyboard-response","268","194717","0.0-6.0-4.43","5000","","","","","make choice","625","3","","","critical","d","c","t","154.6796","220.0396","240","164","164","240","spektor","0.14","h","164","240","240","164","154.6796","220.0396","39360","39360","34035.6388","td","null","null","null","null","null","null","[3,1]"
"","canvas-keyboard-response","269","194885","0.0-6.0-5.43","5000","","","","","clear_screen","null","null","","","critical","d","c","t","154.6796","220.0396","240","164","164","240","spektor","0.14","h","164","240","240","164","154.6796","220.0396","39360","39360","34035.6388","td","null","null","null","null","null","null","[3,1]"
"","canvas-keyboard-response","270","195103","0.0-6.0-0.44","5000","","","","","pre trial waiting period","null","null","","","critical","t","c","d","164","240","240","164","162.6685","237.1485","trueblood","0.02","h","164","240","240","164","162.6685","237.1485","39360","39360","38576.5967","dc","null","null","null","null","null","null","[3,2]"
"","canvas-keyboard-response","271","195263","0.0-6.0-1.44","5000","","","","","clear_screen","null","null","","","critical","t","c","d","164","240","240","164","162.6685","237.1485","trueblood","0.02","h","164","240","240","164","162.6685","237.1485","39360","39360","38576.5967","dc","null","null","null","null","null","null","[3,2]"
"","canvas-keyboard-response","272","196609","0.0-6.0-2.44","5000","","","","","rectangles","null","null","","","critical","t","c","d","164","240","240","164","162.6685","237.1485","trueblood","0.02","h","164","240","240","164","162.6685","237.1485","39360","39360","38576.5967","dc","null","null","null","null","null","null","[3,2]"
"","canvas-keyboard-response","273","196778","0.0-6.0-3.44","5000","","","","","clear_screen","null","null","","","critical","t","c","d","164","240","240","164","162.6685","237.1485","trueblood","0.02","h","164","240","240","164","162.6685","237.1485","39360","39360","38576.5967","dc","null","null","null","null","null","null","[3,2]"
"","canvas-keyboard-response","274","197134","0.0-6.0-4.44","5000","","","","","make choice","334","2","","","critical","t","c","d","164","240","240","164","162.6685","237.1485","trueblood","0.02","h","164","240","240","164","162.6685","237.1485","39360","39360","38576.5967","dc","null","null","null","null","null","null","[3,2]"
"","canvas-keyboard-response","275","197300","0.0-6.0-5.44","5000","","","","","clear_screen","null","null","","","critical","t","c","d","164","240","240","164","162.6685","237.1485","trueblood","0.02","h","164","240","240","164","162.6685","237.1485","39360","39360","38576.5967","dc","null","null","null","null","null","null","[3,2]"
"","canvas-keyboard-response","276","197515","0.0-6.0-0.45","5000","","","","","pre trial waiting period","null","null","","","critical","c","t","d","240","164","164","240","158.0083","227.1683","trueblood","0.09","h","164","240","240","164","158.0083","227.1683","39360","39360","35894.4834","td","null","null","null","null","null","null","[2,3]"
"","canvas-keyboard-response","277","197676","0.0-6.0-1.45","5000","","","","","clear_screen","null","null","","","critical","c","t","d","240","164","164","240","158.0083","227.1683","trueblood","0.09","h","164","240","240","164","158.0083","227.1683","39360","39360","35894.4834","td","null","null","null","null","null","null","[2,3]"
"","canvas-keyboard-response","278","199020","0.0-6.0-2.45","5000","","","","","rectangles","null","null","","","critical","c","t","d","240","164","164","240","158.0083","227.1683","trueblood","0.09","h","164","240","240","164","158.0083","227.1683","39360","39360","35894.4834","td","null","null","null","null","null","null","[2,3]"
"","canvas-keyboard-response","279","199192","0.0-6.0-3.45","5000","","","","","clear_screen","null","null","","","critical","c","t","d","240","164","164","240","158.0083","227.1683","trueblood","0.09","h","164","240","240","164","158.0083","227.1683","39360","39360","35894.4834","td","null","null","null","null","null","null","[2,3]"
"","canvas-keyboard-response","280","200149","0.0-6.0-4.45","5000","","","","","make choice","936","3","","","critical","c","t","d","240","164","164","240","158.0083","227.1683","trueblood","0.09","h","164","240","240","164","158.0083","227.1683","39360","39360","35894.4834","td","null","null","null","null","null","null","[2,3]"
"","canvas-keyboard-response","281","200315","0.0-6.0-5.45","5000","","","","","clear_screen","null","null","","","critical","c","t","d","240","164","164","240","158.0083","227.1683","trueblood","0.09","h","164","240","240","164","158.0083","227.1683","39360","39360","35894.4834","td","null","null","null","null","null","null","[2,3]"
"","canvas-keyboard-response","282","200531","0.0-6.0-0.46","5000","","","","","pre trial waiting period","null","null","","","critical","d","t","c","154.6796","220.0396","164","240","240","164","trueblood","0.14","h","164","240","240","164","154.6796","220.0396","39360","39360","34035.6388","dc","null","null","null","null","null","null","[1,3]"
"","canvas-keyboard-response","283","200693","0.0-6.0-1.46","5000","","","","","clear_screen","null","null","","","critical","d","t","c","154.6796","220.0396","164","240","240","164","trueblood","0.14","h","164","240","240","164","154.6796","220.0396","39360","39360","34035.6388","dc","null","null","null","null","null","null","[1,3]"
"","canvas-keyboard-response","284","202040","0.0-6.0-2.46","5000","","","","","rectangles","null","null","","","critical","d","t","c","154.6796","220.0396","164","240","240","164","trueblood","0.14","h","164","240","240","164","154.6796","220.0396","39360","39360","34035.6388","dc","null","null","null","null","null","null","[1,3]"
"","canvas-keyboard-response","285","202212","0.0-6.0-3.46","5000","","","","","clear_screen","null","null","","","critical","d","t","c","154.6796","220.0396","164","240","240","164","trueblood","0.14","h","164","240","240","164","154.6796","220.0396","39360","39360","34035.6388","dc","null","null","null","null","null","null","[1,3]"
"","canvas-keyboard-response","286","202637","0.0-6.0-4.46","5000","","","","","make choice","405","1","","","critical","d","t","c","154.6796","220.0396","164","240","240","164","trueblood","0.14","h","164","240","240","164","154.6796","220.0396","39360","39360","34035.6388","dc","null","null","null","null","null","null","[1,3]"
"","canvas-keyboard-response","287","202805","0.0-6.0-5.46","5000","","","","","clear_screen","null","null","","","critical","d","t","c","154.6796","220.0396","164","240","240","164","trueblood","0.14","h","164","240","240","164","154.6796","220.0396","39360","39360","34035.6388","dc","null","null","null","null","null","null","[1,3]"
"","canvas-keyboard-response","288","203019","0.0-6.0-0.47","5000","","","","","pre trial waiting period","null","null","","","critical","t","c","d","164","240","240","164","158.0083","227.1683","trueblood","0.09","h","164","240","240","164","158.0083","227.1683","39360","39360","35894.4834","dc","null","null","null","null","null","null","[3,2]"
"","canvas-keyboard-response","289","203187","0.0-6.0-1.47","5000","","","","","clear_screen","null","null","","","critical","t","c","d","164","240","240","164","158.0083","227.1683","trueblood","0.09","h","164","240","240","164","158.0083","227.1683","39360","39360","35894.4834","dc","null","null","null","null","null","null","[3,2]"
"","canvas-keyboard-response","290","204526","0.0-6.0-2.47","5000","","","","","rectangles","null","null","","","critical","t","c","d","164","240","240","164","158.0083","227.1683","trueblood","0.09","h","164","240","240","164","158.0083","227.1683","39360","39360","35894.4834","dc","null","null","null","null","null","null","[3,2]"
"","canvas-keyboard-response","291","204697","0.0-6.0-3.47","5000","","","","","clear_screen","null","null","","","critical","t","c","d","164","240","240","164","158.0083","227.1683","trueblood","0.09","h","164","240","240","164","158.0083","227.1683","39360","39360","35894.4834","dc","null","null","null","null","null","null","[3,2]"
"","canvas-keyboard-response","292","205300","0.0-6.0-4.47","5000","","","","","make choice","584","2","","","critical","t","c","d","164","240","240","164","158.0083","227.1683","trueblood","0.09","h","164","240","240","164","158.0083","227.1683","39360","39360","35894.4834","dc","null","null","null","null","null","null","[3,2]"
"","canvas-keyboard-response","293","205469","0.0-6.0-5.47","5000","","","","","clear_screen","null","null","","","critical","t","c","d","164","240","240","164","158.0083","227.1683","trueblood","0.09","h","164","240","240","164","158.0083","227.1683","39360","39360","35894.4834","dc","null","null","null","null","null","null","[3,2]"
"","canvas-keyboard-response","294","205684","0.0-6.0-0.48","5000","","","","","pre trial waiting period","null","null","","","critical","d","t","c","237.1485","162.6685","240","164","164","240","spektor","0.02","w","240","164","164","240","237.1485","162.6685","39360","39360","38576.5967","dc","null","null","null","null","null","null","[1,3]"
"","canvas-keyboard-response","295","205846","0.0-6.0-1.48","5000","","","","","clear_screen","null","null","","","critical","d","t","c","237.1485","162.6685","240","164","164","240","spektor","0.02","w","240","164","164","240","237.1485","162.6685","39360","39360","38576.5967","dc","null","null","null","null","null","null","[1,3]"
"","canvas-keyboard-response","296","207190","0.0-6.0-2.48","5000","","","","","rectangles","null","null","","","critical","d","t","c","237.1485","162.6685","240","164","164","240","spektor","0.02","w","240","164","164","240","237.1485","162.6685","39360","39360","38576.5967","dc","null","null","null","null","null","null","[1,3]"
"","canvas-keyboard-response","297","207359","0.0-6.0-3.48","5000","","","","","clear_screen","null","null","","","critical","d","t","c","237.1485","162.6685","240","164","164","240","spektor","0.02","w","240","164","164","240","237.1485","162.6685","39360","39360","38576.5967","dc","null","null","null","null","null","null","[1,3]"
"","canvas-keyboard-response","298","208589","0.0-6.0-4.48","5000","","","","","make choice","1211","1","","","critical","d","t","c","237.1485","162.6685","240","164","164","240","spektor","0.02","w","240","164","164","240","237.1485","162.6685","39360","39360","38576.5967","dc","null","null","null","null","null","null","[1,3]"
"","canvas-keyboard-response","299","208757","0.0-6.0-5.48","5000","","","","","clear_screen","null","null","","","critical","d","t","c","237.1485","162.6685","240","164","164","240","spektor","0.02","w","240","164","164","240","237.1485","162.6685","39360","39360","38576.5967","dc","null","null","null","null","null","null","[1,3]"
"","canvas-keyboard-response","300","208975","0.0-6.0-0.49","5000","","","","","pre trial waiting period","null","null","","","critical","t","d","c","164","240","158.0083","227.1683","240","164","trueblood","0.09","h","164","240","240","164","158.0083","227.1683","39360","39360","35894.4834","tc","null","null","null","null","null","null","[1,3]"
"","canvas-keyboard-response","301","209138","0.0-6.0-1.49","5000","","","","","clear_screen","null","null","","","critical","t","d","c","164","240","158.0083","227.1683","240","164","trueblood","0.09","h","164","240","240","164","158.0083","227.1683","39360","39360","35894.4834","tc","null","null","null","null","null","null","[1,3]"
"","canvas-keyboard-response","302","210484","0.0-6.0-2.49","5000","","","","","rectangles","null","null","","","critical","t","d","c","164","240","158.0083","227.1683","240","164","trueblood","0.09","h","164","240","240","164","158.0083","227.1683","39360","39360","35894.4834","tc","null","null","null","null","null","null","[1,3]"
"","canvas-keyboard-response","303","210657","0.0-6.0-3.49","5000","","","","","clear_screen","null","null","","","critical","t","d","c","164","240","158.0083","227.1683","240","164","trueblood","0.09","h","164","240","240","164","158.0083","227.1683","39360","39360","35894.4834","tc","null","null","null","null","null","null","[1,3]"
"","canvas-keyboard-response","304","211605","0.0-6.0-4.49","5000","","","","","make choice","926","3","","","critical","t","d","c","164","240","158.0083","227.1683","240","164","trueblood","0.09","h","164","240","240","164","158.0083","227.1683","39360","39360","35894.4834","tc","null","null","null","null","null","null","[1,3]"
