"success","trial_type","trial_index","time_elapsed","internal_node_id","sub_n","timeout","failed_images","failed_audio","failed_video","screen_id","rt","response","stimulus","view_history","trial","r1","r2","r3","w1","h1","w2","h2","w3","h3","display","tdd","tdo","tw","th","cw","ch","dw","dh","ta","ca","da","probe","csls","csss","clls","clss","sa","la","probe_rects"
"true","fullscreen","0","2540","0.0-0.0","41","","","","","","","","","","","","","","","","","","","","","","","","","","","","","","","","","","","","","","",""
"true","preload","1","2558","0.0-1.0","41","false","[]","[]","[]","img preload","","","","","","","","","","","","","","","","","","","","","","","","","","","","","","","","","",""
"","survey-html-form","2","11517","0.0-2.0","41","","","","","enter-sub-number","8949","{""response"":""41""}","","","","","","","","","","","","","","","","","","","","","","","","","","","","","","","",""
"","image-button-response","3","93980","0.0-3.0","41","","","","","","82396","0","consent.png","","","","","","","","","","","","","","","","","","","","","","","","","","","","","","",""
"","html-button-response","4","114395","0.0-4.0","41","","","","","intro mssg","20409","0","<div style= ""font-size:25px;"" <p> <strong> Welcome! </strong><br> <p style=""color:#8B0000; font-size:25px;""><strong> Please do NOT exit full screen until you are done with the experiment. </strong> </p><p style=""font-size:25px;color:#8B0000;""> <strong> Your data will be lost <br> if you try to go back or refresh the page after the experiment starts. Feel free to click ""previous"" during the instructions, however.</strong> </p><br><p> <strong> Thanks in advance for your contribution to our research! </strong></p>","","","","","","","","","","","","","","","","","","","","","","","","","","","","","","",""
"","instructions","5","194467","0.0-5.0","41","","","","","instructions","80067","","","[{""page_index"":0,""viewing_time"":21115},{""page_index"":1,""viewing_time"":12488},{""page_index"":2,""viewing_time"":6063},{""page_index"":3,""viewing_time"":28634},{""page_index"":4,""viewing_time"":7439},{""page_index"":5,""viewing_time"":1528},{""page_index"":6,""viewing_time"":1696},{""page_index"":7,""viewing_time"":1104}]","","","","","","","","","","","","","","","","","","","","","","","","","","","","","",""
"","canvas-keyboard-response","6","194672","0.0-6.0-0.0","41","","","","","pre trial waiting period","null","null","","","catch","sw","l","sh","180","200","292","184","228","145","trueblood","null","null","null","null","null","null","null","null","null","null","null","","180","200","260","200","36000","52000","[2,3]"
"","canvas-keyboard-response","7","194834","0.0-6.0-1.0","41","","","","","clear_screen","null","null","","","catch","sw","l","sh","180","200","292","184","228","145","trueblood","null","null","null","null","null","null","null","null","null","null","null","","180","200","260","200","36000","52000","[2,3]"
"","canvas-keyboard-response","8","196173","0.0-6.0-2.0","41","","","","","rectangles","null","null","","","catch","sw","l","sh","180","200","292","184","228","145","trueblood","null","null","null","null","null","null","null","null","null","null","null","","180","200","260","200","36000","52000","[2,3]"
"","canvas-keyboard-response","9","196333","0.0-6.0-3.0","41","","","","","clear_screen","null","null","","","catch","sw","l","sh","180","200","292","184","228","145","trueblood","null","null","null","null","null","null","null","null","null","null","null","","180","200","260","200","36000","52000","[2,3]"
"","canvas-keyboard-response","10","197946","0.0-6.0-4.0","41","","","","","make choice","1600","2","","","catch","sw","l","sh","180","200","292","184","228","145","trueblood","null","null","null","null","null","null","null","null","null","null","null","","180","200","260","200","36000","52000","[2,3]"
"","canvas-keyboard-response","11","198108","0.0-6.0-5.0","41","","","","","clear_screen","null","null","","","catch","sw","l","sh","180","200","292","184","228","145","trueblood","null","null","null","null","null","null","null","null","null","null","null","","180","200","260","200","36000","52000","[2,3]"
"","canvas-keyboard-response","12","198310","0.0-6.0-0.1","41","","","","","pre trial waiting period","null","null","","","critical","c","t","d","164","240","240","164","227.1683","158.0083","trueblood","0.09","w","240","164","164","240","227.1683","158.0083","39360","39360","35894.4834","td","null","null","null","null","null","null","[2,3]"
"","canvas-keyboard-response","13","198469","0.0-6.0-1.1","41","","","","","clear_screen","null","null","","","critical","c","t","d","164","240","240","164","227.1683","158.0083","trueblood","0.09","w","240","164","164","240","227.1683","158.0083","39360","39360","35894.4834","td","null","null","null","null","null","null","[2,3]"
"","canvas-keyboard-response","14","199806","0.0-6.0-2.1","41","","","","","rectangles","null","null","","","critical","c","t","d","164","240","240","164","227.1683","158.0083","trueblood","0.09","w","240","164","164","240","227.1683","158.0083","39360","39360","35894.4834","td","null","null","null","null","null","null","[2,3]"
"","canvas-keyboard-response","15","199964","0.0-6.0-3.1","41","","","","","clear_screen","null","null","","","critical","c","t","d","164","240","240","164","227.1683","158.0083","trueblood","0.09","w","240","164","164","240","227.1683","158.0083","39360","39360","35894.4834","td","null","null","null","null","null","null","[2,3]"
"","canvas-keyboard-response","16","204146","0.0-6.0-4.1","41","","","","","make choice","4175","2","","","critical","c","t","d","164","240","240","164","227.1683","158.0083","trueblood","0.09","w","240","164","164","240","227.1683","158.0083","39360","39360","35894.4834","td","null","null","null","null","null","null","[2,3]"
"","canvas-keyboard-response","17","204308","0.0-6.0-5.1","41","","","","","clear_screen","null","null","","","critical","c","t","d","164","240","240","164","227.1683","158.0083","trueblood","0.09","w","240","164","164","240","227.1683","158.0083","39360","39360","35894.4834","td","null","null","null","null","null","null","[2,3]"
"","canvas-keyboard-response","18","204511","0.0-6.0-0.2","41","","","","","pre trial waiting period","null","null","","","critical","c","d","t","240","164","158.0083","227.1683","164","240","spektor","0.09","h","164","240","240","164","158.0083","227.1683","39360","39360","35894.4834","td","null","null","null","null","null","null","[3,2]"
"","canvas-keyboard-response","19","204676","0.0-6.0-1.2","41","","","","","clear_screen","null","null","","","critical","c","d","t","240","164","158.0083","227.1683","164","240","spektor","0.09","h","164","240","240","164","158.0083","227.1683","39360","39360","35894.4834","td","null","null","null","null","null","null","[3,2]"
"","canvas-keyboard-response","20","206013","0.0-6.0-2.2","41","","","","","rectangles","null","null","","","critical","c","d","t","240","164","158.0083","227.1683","164","240","spektor","0.09","h","164","240","240","164","158.0083","227.1683","39360","39360","35894.4834","td","null","null","null","null","null","null","[3,2]"
"","canvas-keyboard-response","21","206173","0.0-6.0-3.2","41","","","","","clear_screen","null","null","","","critical","c","d","t","240","164","158.0083","227.1683","164","240","spektor","0.09","h","164","240","240","164","158.0083","227.1683","39360","39360","35894.4834","td","null","null","null","null","null","null","[3,2]"
"","canvas-keyboard-response","22","209299","0.0-6.0-4.2","41","","","","","make choice","3118","3","","","critical","c","d","t","240","164","158.0083","227.1683","164","240","spektor","0.09","h","164","240","240","164","158.0083","227.1683","39360","39360","35894.4834","td","null","null","null","null","null","null","[3,2]"
"","canvas-keyboard-response","23","209460","0.0-6.0-5.2","41","","","","","clear_screen","null","null","","","critical","c","d","t","240","164","158.0083","227.1683","164","240","spektor","0.09","h","164","240","240","164","158.0083","227.1683","39360","39360","35894.4834","td","null","null","null","null","null","null","[3,2]"
"","canvas-keyboard-response","24","209661","0.0-6.0-0.3","41","","","","","pre trial waiting period","null","null","","","catch","sh","sw","l","168","211","144","160","220","238","trueblood","null","null","null","null","null","null","null","null","null","null","null","","180","200","260","200","36000","52000","[2,3]"
"","canvas-keyboard-response","25","209822","0.0-6.0-1.3","41","","","","","clear_screen","null","null","","","catch","sh","sw","l","168","211","144","160","220","238","trueblood","null","null","null","null","null","null","null","null","null","null","null","","180","200","260","200","36000","52000","[2,3]"
"","canvas-keyboard-response","26","211159","0.0-6.0-2.3","41","","","","","rectangles","null","null","","","catch","sh","sw","l","168","211","144","160","220","238","trueblood","null","null","null","null","null","null","null","null","null","null","null","","180","200","260","200","36000","52000","[2,3]"
"","canvas-keyboard-response","27","211319","0.0-6.0-3.3","41","","","","","clear_screen","null","null","","","catch","sh","sw","l","168","211","144","160","220","238","trueblood","null","null","null","null","null","null","null","null","null","null","null","","180","200","260","200","36000","52000","[2,3]"
"","canvas-keyboard-response","28","212171","0.0-6.0-4.3","41","","","","","make choice","844","3","","","catch","sh","sw","l","168","211","144","160","220","238","trueblood","null","null","null","null","null","null","null","null","null","null","null","","180","200","260","200","36000","52000","[2,3]"
"","canvas-keyboard-response","29","212331","0.0-6.0-5.3","41","","","","","clear_screen","null","null","","","catch","sh","sw","l","168","211","144","160","220","238","trueblood","null","null","null","null","null","null","null","null","null","null","null","","180","200","260","200","36000","52000","[2,3]"
"","canvas-keyboard-response","30","212533","0.0-6.0-0.4","41","","","","","pre trial waiting period","null","null","","","catch","sw","sh","l","180","200","197","200","260","161","spektor","null","null","null","null","null","null","null","null","null","null","null","","180","200","260","200","36000","52000","[1,3]"
"","canvas-keyboard-response","31","212693","0.0-6.0-1.4","41","","","","","clear_screen","null","null","","","catch","sw","sh","l","180","200","197","200","260","161","spektor","null","null","null","null","null","null","null","null","null","null","null","","180","200","260","200","36000","52000","[1,3]"
"","canvas-keyboard-response","32","214028","0.0-6.0-2.4","41","","","","","rectangles","null","null","","","catch","sw","sh","l","180","200","197","200","260","161","spektor","null","null","null","null","null","null","null","null","null","null","null","","180","200","260","200","36000","52000","[1,3]"
"","canvas-keyboard-response","33","214182","0.0-6.0-3.4","41","","","","","clear_screen","null","null","","","catch","sw","sh","l","180","200","197","200","260","161","spektor","null","null","null","null","null","null","null","null","null","null","null","","180","200","260","200","36000","52000","[1,3]"
"","canvas-keyboard-response","34","215675","0.0-6.0-4.4","41","","","","","make choice","1481","1","","","catch","sw","sh","l","180","200","197","200","260","161","spektor","null","null","null","null","null","null","null","null","null","null","null","","180","200","260","200","36000","52000","[1,3]"
"","canvas-keyboard-response","35","215835","0.0-6.0-5.4","41","","","","","clear_screen","null","null","","","catch","sw","sh","l","180","200","197","200","260","161","spektor","null","null","null","null","null","null","null","null","null","null","null","","180","200","260","200","36000","52000","[1,3]"
"","canvas-keyboard-response","36","216037","0.0-6.0-0.5","41","","","","","pre trial waiting period","null","null","","","critical","c","d","t","164","240","232.8713","160.6713","240","164","spektor","0.05","w","240","164","164","240","232.8713","160.6713","39360","39360","37415.7294","tc","null","null","null","null","null","null","[3,1]"
"","canvas-keyboard-response","37","216191","0.0-6.0-1.5","41","","","","","clear_screen","null","null","","","critical","c","d","t","164","240","232.8713","160.6713","240","164","spektor","0.05","w","240","164","164","240","232.8713","160.6713","39360","39360","37415.7294","tc","null","null","null","null","null","null","[3,1]"
"","canvas-keyboard-response","38","217526","0.0-6.0-2.5","41","","","","","rectangles","null","null","","","critical","c","d","t","164","240","232.8713","160.6713","240","164","spektor","0.05","w","240","164","164","240","232.8713","160.6713","39360","39360","37415.7294","tc","null","null","null","null","null","null","[3,1]"
"","canvas-keyboard-response","39","217686","0.0-6.0-3.5","41","","","","","clear_screen","null","null","","","critical","c","d","t","164","240","232.8713","160.6713","240","164","spektor","0.05","w","240","164","164","240","232.8713","160.6713","39360","39360","37415.7294","tc","null","null","null","null","null","null","[3,1]"
"","canvas-keyboard-response","40","219491","0.0-6.0-4.5","41","","","","","make choice","1795","3","","","critical","c","d","t","164","240","232.8713","160.6713","240","164","spektor","0.05","w","240","164","164","240","232.8713","160.6713","39360","39360","37415.7294","tc","null","null","null","null","null","null","[3,1]"
"","canvas-keyboard-response","41","219651","0.0-6.0-5.5","41","","","","","clear_screen","null","null","","","critical","c","d","t","164","240","232.8713","160.6713","240","164","spektor","0.05","w","240","164","164","240","232.8713","160.6713","39360","39360","37415.7294","tc","null","null","null","null","null","null","[3,1]"
"","canvas-keyboard-response","42","219852","0.0-6.0-0.6","41","","","","","pre trial waiting period","null","null","","","catch","sh","sw","l","177","147","140","225","171","244","spektor","null","null","null","null","null","null","null","null","null","null","null","","180","200","260","200","36000","52000","[1,3]"
"","canvas-keyboard-response","43","220015","0.0-6.0-1.6","41","","","","","clear_screen","null","null","","","catch","sh","sw","l","177","147","140","225","171","244","spektor","null","null","null","null","null","null","null","null","null","null","null","","180","200","260","200","36000","52000","[1,3]"
"","canvas-keyboard-response","44","221352","0.0-6.0-2.6","41","","","","","rectangles","null","null","","","catch","sh","sw","l","177","147","140","225","171","244","spektor","null","null","null","null","null","null","null","null","null","null","null","","180","200","260","200","36000","52000","[1,3]"
"","canvas-keyboard-response","45","221513","0.0-6.0-3.6","41","","","","","clear_screen","null","null","","","catch","sh","sw","l","177","147","140","225","171","244","spektor","null","null","null","null","null","null","null","null","null","null","null","","180","200","260","200","36000","52000","[1,3]"
"","canvas-keyboard-response","46","222762","0.0-6.0-4.6","41","","","","","make choice","1241","3","","","catch","sh","sw","l","177","147","140","225","171","244","spektor","null","null","null","null","null","null","null","null","null","null","null","","180","200","260","200","36000","52000","[1,3]"
"","canvas-keyboard-response","47","222921","0.0-6.0-5.6","41","","","","","clear_screen","null","null","","","catch","sh","sw","l","177","147","140","225","171","244","spektor","null","null","null","null","null","null","null","null","null","null","null","","180","200","260","200","36000","52000","[1,3]"
"","canvas-keyboard-response","48","223122","0.0-6.0-0.7","41","","","","","pre trial waiting period","null","null","","","critical","d","c","t","227.1683","158.0083","164","240","240","164","trueblood","0.09","w","240","164","164","240","227.1683","158.0083","39360","39360","35894.4834","dc","null","null","null","null","null","null","[1,2]"
"","canvas-keyboard-response","49","223286","0.0-6.0-1.7","41","","","","","clear_screen","null","null","","","critical","d","c","t","227.1683","158.0083","164","240","240","164","trueblood","0.09","w","240","164","164","240","227.1683","158.0083","39360","39360","35894.4834","dc","null","null","null","null","null","null","[1,2]"
"","canvas-keyboard-response","50","224623","0.0-6.0-2.7","41","","","","","rectangles","null","null","","","critical","d","c","t","227.1683","158.0083","164","240","240","164","trueblood","0.09","w","240","164","164","240","227.1683","158.0083","39360","39360","35894.4834","dc","null","null","null","null","null","null","[1,2]"
"","canvas-keyboard-response","51","224782","0.0-6.0-3.7","41","","","","","clear_screen","null","null","","","critical","d","c","t","227.1683","158.0083","164","240","240","164","trueblood","0.09","w","240","164","164","240","227.1683","158.0083","39360","39360","35894.4834","dc","null","null","null","null","null","null","[1,2]"
"","canvas-keyboard-response","52","226931","0.0-6.0-4.7","41","","","","","make choice","2136","2","","","critical","d","c","t","227.1683","158.0083","164","240","240","164","trueblood","0.09","w","240","164","164","240","227.1683","158.0083","39360","39360","35894.4834","dc","null","null","null","null","null","null","[1,2]"
"","canvas-keyboard-response","53","227090","0.0-6.0-5.7","41","","","","","clear_screen","null","null","","","critical","d","c","t","227.1683","158.0083","164","240","240","164","trueblood","0.09","w","240","164","164","240","227.1683","158.0083","39360","39360","35894.4834","dc","null","null","null","null","null","null","[1,2]"
"","canvas-keyboard-response","54","227291","0.0-6.0-0.8","41","","","","","pre trial waiting period","null","null","","","catch","sw","l","sh","180","200","297","191","184","153","trueblood","null","null","null","null","null","null","null","null","null","null","null","","180","200","260","200","36000","52000","[1,2]"
"","canvas-keyboard-response","55","227451","0.0-6.0-1.8","41","","","","","clear_screen","null","null","","","catch","sw","l","sh","180","200","297","191","184","153","trueblood","null","null","null","null","null","null","null","null","null","null","null","","180","200","260","200","36000","52000","[1,2]"
"","canvas-keyboard-response","56","228786","0.0-6.0-2.8","41","","","","","rectangles","null","null","","","catch","sw","l","sh","180","200","297","191","184","153","trueblood","null","null","null","null","null","null","null","null","null","null","null","","180","200","260","200","36000","52000","[1,2]"
"","canvas-keyboard-response","57","228946","0.0-6.0-3.8","41","","","","","clear_screen","null","null","","","catch","sw","l","sh","180","200","297","191","184","153","trueblood","null","null","null","null","null","null","null","null","null","null","null","","180","200","260","200","36000","52000","[1,2]"
"","canvas-keyboard-response","58","229410","0.0-6.0-4.8","41","","","","","make choice","452","2","","","catch","sw","l","sh","180","200","297","191","184","153","trueblood","null","null","null","null","null","null","null","null","null","null","null","","180","200","260","200","36000","52000","[1,2]"
"","canvas-keyboard-response","59","229570","0.0-6.0-5.8","41","","","","","clear_screen","null","null","","","catch","sw","l","sh","180","200","297","191","184","153","trueblood","null","null","null","null","null","null","null","null","null","null","null","","180","200","260","200","36000","52000","[1,2]"
"","canvas-keyboard-response","60","229772","0.0-6.0-0.9","41","","","","","pre trial waiting period","null","null","","","critical","t","c","d","240","164","164","240","237.1485","162.6685","trueblood","0.02","w","240","164","164","240","237.1485","162.6685","39360","39360","38576.5967","tc","null","null","null","null","null","null","[1,2]"
"","canvas-keyboard-response","61","229935","0.0-6.0-1.9","41","","","","","clear_screen","null","null","","","critical","t","c","d","240","164","164","240","237.1485","162.6685","trueblood","0.02","w","240","164","164","240","237.1485","162.6685","39360","39360","38576.5967","tc","null","null","null","null","null","null","[1,2]"
"","canvas-keyboard-response","62","231270","0.0-6.0-2.9","41","","","","","rectangles","null","null","","","critical","t","c","d","240","164","164","240","237.1485","162.6685","trueblood","0.02","w","240","164","164","240","237.1485","162.6685","39360","39360","38576.5967","tc","null","null","null","null","null","null","[1,2]"
"","canvas-keyboard-response","63","231427","0.0-6.0-3.9","41","","","","","clear_screen","null","null","","","critical","t","c","d","240","164","164","240","237.1485","162.6685","trueblood","0.02","w","240","164","164","240","237.1485","162.6685","39360","39360","38576.5967","tc","null","null","null","null","null","null","[1,2]"
"","canvas-keyboard-response","64","231931","0.0-6.0-4.9","41","","","","","make choice","496","2","","","critical","t","c","d","240","164","164","240","237.1485","162.6685","trueblood","0.02","w","240","164","164","240","237.1485","162.6685","39360","39360","38576.5967","tc","null","null","null","null","null","null","[1,2]"
"","canvas-keyboard-response","65","232089","0.0-6.0-5.9","41","","","","","clear_screen","null","null","","","critical","t","c","d","240","164","164","240","237.1485","162.6685","trueblood","0.02","w","240","164","164","240","237.1485","162.6685","39360","39360","38576.5967","tc","null","null","null","null","null","null","[1,2]"
"","canvas-keyboard-response","66","232291","0.0-6.0-0.10","41","","","","","pre trial waiting period","null","null","","","critical","c","t","d","164","240","240","164","240","164","trueblood","0","w","240","164","164","240","240","164","39360","39360","39360","dc","null","null","null","null","null","null","[3,1]"
"","canvas-keyboard-response","67","232451","0.0-6.0-1.10","41","","","","","clear_screen","null","null","","","critical","c","t","d","164","240","240","164","240","164","trueblood","0","w","240","164","164","240","240","164","39360","39360","39360","dc","null","null","null","null","null","null","[3,1]"
"","canvas-keyboard-response","68","233787","0.0-6.0-2.10","41","","","","","rectangles","null","null","","","critical","c","t","d","164","240","240","164","240","164","trueblood","0","w","240","164","164","240","240","164","39360","39360","39360","dc","null","null","null","null","null","null","[3,1]"
"","canvas-keyboard-response","69","233948","0.0-6.0-3.10","41","","","","","clear_screen","null","null","","","critical","c","t","d","164","240","240","164","240","164","trueblood","0","w","240","164","164","240","240","164","39360","39360","39360","dc","null","null","null","null","null","null","[3,1]"
"","canvas-keyboard-response","70","234484","0.0-6.0-4.10","41","","","","","make choice","527","1","","","critical","c","t","d","164","240","240","164","240","164","trueblood","0","w","240","164","164","240","240","164","39360","39360","39360","dc","null","null","null","null","null","null","[3,1]"
"","canvas-keyboard-response","71","234643","0.0-6.0-5.10","41","","","","","clear_screen","null","null","","","critical","c","t","d","164","240","240","164","240","164","trueblood","0","w","240","164","164","240","240","164","39360","39360","39360","dc","null","null","null","null","null","null","[3,1]"
"","canvas-keyboard-response","72","234845","0.0-6.0-0.11","41","","","","","pre trial waiting period","null","null","","","critical","t","d","c","164","240","164","240","240","164","spektor","0","h","164","240","240","164","164","240","39360","39360","39360","td","null","null","null","null","null","null","[1,2]"
"","canvas-keyboard-response","73","235006","0.0-6.0-1.11","41","","","","","clear_screen","null","null","","","critical","t","d","c","164","240","164","240","240","164","spektor","0","h","164","240","240","164","164","240","39360","39360","39360","td","null","null","null","null","null","null","[1,2]"
"","canvas-keyboard-response","74","236339","0.0-6.0-2.11","41","","","","","rectangles","null","null","","","critical","t","d","c","164","240","164","240","240","164","spektor","0","h","164","240","240","164","164","240","39360","39360","39360","td","null","null","null","null","null","null","[1,2]"
"","canvas-keyboard-response","75","236494","0.0-6.0-3.11","41","","","","","clear_screen","null","null","","","critical","t","d","c","164","240","164","240","240","164","spektor","0","h","164","240","240","164","164","240","39360","39360","39360","td","null","null","null","null","null","null","[1,2]"
"","canvas-keyboard-response","76","239378","0.0-6.0-4.11","41","","","","","make choice","2872","1","","","critical","t","d","c","164","240","164","240","240","164","spektor","0","h","164","240","240","164","164","240","39360","39360","39360","td","null","null","null","null","null","null","[1,2]"
"","canvas-keyboard-response","77","239539","0.0-6.0-5.11","41","","","","","clear_screen","null","null","","","critical","t","d","c","164","240","164","240","240","164","spektor","0","h","164","240","240","164","164","240","39360","39360","39360","td","null","null","null","null","null","null","[1,2]"
"","canvas-keyboard-response","78","239740","0.0-6.0-0.12","41","","","","","pre trial waiting period","null","null","","","critical","d","c","t","154.6796","220.0396","240","164","164","240","spektor","0.14","h","164","240","240","164","154.6796","220.0396","39360","39360","34035.6388","td","null","null","null","null","null","null","[3,1]"
"","canvas-keyboard-response","79","239900","0.0-6.0-1.12","41","","","","","clear_screen","null","null","","","critical","d","c","t","154.6796","220.0396","240","164","164","240","spektor","0.14","h","164","240","240","164","154.6796","220.0396","39360","39360","34035.6388","td","null","null","null","null","null","null","[3,1]"
"","canvas-keyboard-response","80","241241","0.0-6.0-2.12","41","","","","","rectangles","null","null","","","critical","d","c","t","154.6796","220.0396","240","164","164","240","spektor","0.14","h","164","240","240","164","154.6796","220.0396","39360","39360","34035.6388","td","null","null","null","null","null","null","[3,1]"
"","canvas-keyboard-response","81","241402","0.0-6.0-3.12","41","","","","","clear_screen","null","null","","","critical","d","c","t","154.6796","220.0396","240","164","164","240","spektor","0.14","h","164","240","240","164","154.6796","220.0396","39360","39360","34035.6388","td","null","null","null","null","null","null","[3,1]"
"","canvas-keyboard-response","82","244955","0.0-6.0-4.12","41","","","","","make choice","3541","3","","","critical","d","c","t","154.6796","220.0396","240","164","164","240","spektor","0.14","h","164","240","240","164","154.6796","220.0396","39360","39360","34035.6388","td","null","null","null","null","null","null","[3,1]"
"","canvas-keyboard-response","83","245115","0.0-6.0-5.12","41","","","","","clear_screen","null","null","","","critical","d","c","t","154.6796","220.0396","240","164","164","240","spektor","0.14","h","164","240","240","164","154.6796","220.0396","39360","39360","34035.6388","td","null","null","null","null","null","null","[3,1]"
"","canvas-keyboard-response","84","245317","0.0-6.0-0.13","41","","","","","pre trial waiting period","null","null","","","catch","l","sw","sh","228","203","200","202","163","187","spektor","null","null","null","null","null","null","null","null","null","null","null","","180","200","260","200","36000","52000","[1,2]"
"","canvas-keyboard-response","85","245483","0.0-6.0-1.13","41","","","","","clear_screen","null","null","","","catch","l","sw","sh","228","203","200","202","163","187","spektor","null","null","null","null","null","null","null","null","null","null","null","","180","200","260","200","36000","52000","[1,2]"
"","canvas-keyboard-response","86","246823","0.0-6.0-2.13","41","","","","","rectangles","null","null","","","catch","l","sw","sh","228","203","200","202","163","187","spektor","null","null","null","null","null","null","null","null","null","null","null","","180","200","260","200","36000","52000","[1,2]"
"","canvas-keyboard-response","87","246987","0.0-6.0-3.13","41","","","","","clear_screen","null","null","","","catch","l","sw","sh","228","203","200","202","163","187","spektor","null","null","null","null","null","null","null","null","null","null","null","","180","200","260","200","36000","52000","[1,2]"
"","canvas-keyboard-response","88","247868","0.0-6.0-4.13","41","","","","","make choice","868","1","","","catch","l","sw","sh","228","203","200","202","163","187","spektor","null","null","null","null","null","null","null","null","null","null","null","","180","200","260","200","36000","52000","[1,2]"
"","canvas-keyboard-response","89","248028","0.0-6.0-5.13","41","","","","","clear_screen","null","null","","","catch","l","sw","sh","228","203","200","202","163","187","spektor","null","null","null","null","null","null","null","null","null","null","null","","180","200","260","200","36000","52000","[1,2]"
"","canvas-keyboard-response","90","248230","0.0-6.0-0.14","41","","","","","pre trial waiting period","null","null","","","critical","c","d","t","240","164","160.6713","232.8713","164","240","trueblood","0.05","h","164","240","240","164","160.6713","232.8713","39360","39360","37415.7294","tc","null","null","null","null","null","null","[3,1]"
"","canvas-keyboard-response","91","248393","0.0-6.0-1.14","41","","","","","clear_screen","null","null","","","critical","c","d","t","240","164","160.6713","232.8713","164","240","trueblood","0.05","h","164","240","240","164","160.6713","232.8713","39360","39360","37415.7294","tc","null","null","null","null","null","null","[3,1]"
"","canvas-keyboard-response","92","249728","0.0-6.0-2.14","41","","","","","rectangles","null","null","","","critical","c","d","t","240","164","160.6713","232.8713","164","240","trueblood","0.05","h","164","240","240","164","160.6713","232.8713","39360","39360","37415.7294","tc","null","null","null","null","null","null","[3,1]"
"","canvas-keyboard-response","93","249888","0.0-6.0-3.14","41","","","","","clear_screen","null","null","","","critical","c","d","t","240","164","160.6713","232.8713","164","240","trueblood","0.05","h","164","240","240","164","160.6713","232.8713","39360","39360","37415.7294","tc","null","null","null","null","null","null","[3,1]"
"","canvas-keyboard-response","94","250794","0.0-6.0-4.14","41","","","","","make choice","897","3","","","critical","c","d","t","240","164","160.6713","232.8713","164","240","trueblood","0.05","h","164","240","240","164","160.6713","232.8713","39360","39360","37415.7294","tc","null","null","null","null","null","null","[3,1]"
"","canvas-keyboard-response","95","250956","0.0-6.0-5.14","41","","","","","clear_screen","null","null","","","critical","c","d","t","240","164","160.6713","232.8713","164","240","trueblood","0.05","h","164","240","240","164","160.6713","232.8713","39360","39360","37415.7294","tc","null","null","null","null","null","null","[3,1]"
"","canvas-keyboard-response","96","251157","0.0-6.0-0.15","41","","","","","pre trial waiting period","null","null","","","catch","sh","sw","l","161","193","149","185","180","274","trueblood","null","null","null","null","null","null","null","null","null","null","null","","180","200","260","200","36000","52000","[1,3]"
"","canvas-keyboard-response","97","251318","0.0-6.0-1.15","41","","","","","clear_screen","null","null","","","catch","sh","sw","l","161","193","149","185","180","274","trueblood","null","null","null","null","null","null","null","null","null","null","null","","180","200","260","200","36000","52000","[1,3]"
"","canvas-keyboard-response","98","252654","0.0-6.0-2.15","41","","","","","rectangles","null","null","","","catch","sh","sw","l","161","193","149","185","180","274","trueblood","null","null","null","null","null","null","null","null","null","null","null","","180","200","260","200","36000","52000","[1,3]"
"","canvas-keyboard-response","99","252813","0.0-6.0-3.15","41","","","","","clear_screen","null","null","","","catch","sh","sw","l","161","193","149","185","180","274","trueblood","null","null","null","null","null","null","null","null","null","null","null","","180","200","260","200","36000","52000","[1,3]"
"","canvas-keyboard-response","100","253618","0.0-6.0-4.15","41","","","","","make choice","796","3","","","catch","sh","sw","l","161","193","149","185","180","274","trueblood","null","null","null","null","null","null","null","null","null","null","null","","180","200","260","200","36000","52000","[1,3]"
"","canvas-keyboard-response","101","253777","0.0-6.0-5.15","41","","","","","clear_screen","null","null","","","catch","sh","sw","l","161","193","149","185","180","274","trueblood","null","null","null","null","null","null","null","null","null","null","null","","180","200","260","200","36000","52000","[1,3]"
"","canvas-keyboard-response","102","253978","0.0-6.0-0.16","41","","","","","pre trial waiting period","null","null","","","catch","sw","l","sh","180","200","209","254","179","213","spektor","null","null","null","null","null","null","null","null","null","null","null","","180","200","260","200","36000","52000","[1,2]"
"","canvas-keyboard-response","103","254137","0.0-6.0-1.16","41","","","","","clear_screen","null","null","","","catch","sw","l","sh","180","200","209","254","179","213","spektor","null","null","null","null","null","null","null","null","null","null","null","","180","200","260","200","36000","52000","[1,2]"
"","canvas-keyboard-response","104","255469","0.0-6.0-2.16","41","","","","","rectangles","null","null","","","catch","sw","l","sh","180","200","209","254","179","213","spektor","null","null","null","null","null","null","null","null","null","null","null","","180","200","260","200","36000","52000","[1,2]"
"","canvas-keyboard-response","105","255629","0.0-6.0-3.16","41","","","","","clear_screen","null","null","","","catch","sw","l","sh","180","200","209","254","179","213","spektor","null","null","null","null","null","null","null","null","null","null","null","","180","200","260","200","36000","52000","[1,2]"
"","canvas-keyboard-response","106","257211","0.0-6.0-4.16","41","","","","","make choice","1571","2","","","catch","sw","l","sh","180","200","209","254","179","213","spektor","null","null","null","null","null","null","null","null","null","null","null","","180","200","260","200","36000","52000","[1,2]"
"","canvas-keyboard-response","107","257371","0.0-6.0-5.16","41","","","","","clear_screen","null","null","","","catch","sw","l","sh","180","200","209","254","179","213","spektor","null","null","null","null","null","null","null","null","null","null","null","","180","200","260","200","36000","52000","[1,2]"
"","canvas-keyboard-response","108","257572","0.0-6.0-0.17","41","","","","","pre trial waiting period","null","null","","","critical","d","t","c","162.6685","237.1485","164","240","240","164","trueblood","0.02","h","164","240","240","164","162.6685","237.1485","39360","39360","38576.5967","tc","null","null","null","null","null","null","[2,3]"
"","canvas-keyboard-response","109","257734","0.0-6.0-1.17","41","","","","","clear_screen","null","null","","","critical","d","t","c","162.6685","237.1485","164","240","240","164","trueblood","0.02","h","164","240","240","164","162.6685","237.1485","39360","39360","38576.5967","tc","null","null","null","null","null","null","[2,3]"
"","canvas-keyboard-response","110","259072","0.0-6.0-2.17","41","","","","","rectangles","null","null","","","critical","d","t","c","162.6685","237.1485","164","240","240","164","trueblood","0.02","h","164","240","240","164","162.6685","237.1485","39360","39360","38576.5967","tc","null","null","null","null","null","null","[2,3]"
"","canvas-keyboard-response","111","259232","0.0-6.0-3.17","41","","","","","clear_screen","null","null","","","critical","d","t","c","162.6685","237.1485","164","240","240","164","trueblood","0.02","h","164","240","240","164","162.6685","237.1485","39360","39360","38576.5967","tc","null","null","null","null","null","null","[2,3]"
"","canvas-keyboard-response","112","263091","0.0-6.0-4.17","41","","","","","make choice","3848","3","","","critical","d","t","c","162.6685","237.1485","164","240","240","164","trueblood","0.02","h","164","240","240","164","162.6685","237.1485","39360","39360","38576.5967","tc","null","null","null","null","null","null","[2,3]"
"","canvas-keyboard-response","113","263248","0.0-6.0-5.17","41","","","","","clear_screen","null","null","","","critical","d","t","c","162.6685","237.1485","164","240","240","164","trueblood","0.02","h","164","240","240","164","162.6685","237.1485","39360","39360","38576.5967","tc","null","null","null","null","null","null","[2,3]"
"","canvas-keyboard-response","114","263449","0.0-6.0-0.18","41","","","","","pre trial waiting period","null","null","","","catch","sh","l","sw","209","203","164","277","207","201","trueblood","null","null","null","null","null","null","null","null","null","null","null","","180","200","260","200","36000","52000","[1,2]"
"","canvas-keyboard-response","115","263609","0.0-6.0-1.18","41","","","","","clear_screen","null","null","","","catch","sh","l","sw","209","203","164","277","207","201","trueblood","null","null","null","null","null","null","null","null","null","null","null","","180","200","260","200","36000","52000","[1,2]"
"","canvas-keyboard-response","116","264944","0.0-6.0-2.18","41","","","","","rectangles","null","null","","","catch","sh","l","sw","209","203","164","277","207","201","trueblood","null","null","null","null","null","null","null","null","null","null","null","","180","200","260","200","36000","52000","[1,2]"
"","canvas-keyboard-response","117","265104","0.0-6.0-3.18","41","","","","","clear_screen","null","null","","","catch","sh","l","sw","209","203","164","277","207","201","trueblood","null","null","null","null","null","null","null","null","null","null","null","","180","200","260","200","36000","52000","[1,2]"
"","canvas-keyboard-response","118","265898","0.0-6.0-4.18","41","","","","","make choice","786","2","","","catch","sh","l","sw","209","203","164","277","207","201","trueblood","null","null","null","null","null","null","null","null","null","null","null","","180","200","260","200","36000","52000","[1,2]"
"","canvas-keyboard-response","119","266057","0.0-6.0-5.18","41","","","","","clear_screen","null","null","","","catch","sh","l","sw","209","203","164","277","207","201","trueblood","null","null","null","null","null","null","null","null","null","null","null","","180","200","260","200","36000","52000","[1,2]"
"","canvas-keyboard-response","120","266259","0.0-6.0-0.19","41","","","","","pre trial waiting period","null","null","","","catch","sh","sw","l","222","142","190","184","186","250","spektor","null","null","null","null","null","null","null","null","null","null","null","","180","200","260","200","36000","52000","[1,3]"
"","canvas-keyboard-response","121","266418","0.0-6.0-1.19","41","","","","","clear_screen","null","null","","","catch","sh","sw","l","222","142","190","184","186","250","spektor","null","null","null","null","null","null","null","null","null","null","null","","180","200","260","200","36000","52000","[1,3]"
"","canvas-keyboard-response","122","267757","0.0-6.0-2.19","41","","","","","rectangles","null","null","","","catch","sh","sw","l","222","142","190","184","186","250","spektor","null","null","null","null","null","null","null","null","null","null","null","","180","200","260","200","36000","52000","[1,3]"
"","canvas-keyboard-response","123","267918","0.0-6.0-3.19","41","","","","","clear_screen","null","null","","","catch","sh","sw","l","222","142","190","184","186","250","spektor","null","null","null","null","null","null","null","null","null","null","null","","180","200","260","200","36000","52000","[1,3]"
"","canvas-keyboard-response","124","268378","0.0-6.0-4.19","41","","","","","make choice","454","1","","","catch","sh","sw","l","222","142","190","184","186","250","spektor","null","null","null","null","null","null","null","null","null","null","null","","180","200","260","200","36000","52000","[1,3]"
"","canvas-keyboard-response","125","268537","0.0-6.0-5.19","41","","","","","clear_screen","null","null","","","catch","sh","sw","l","222","142","190","184","186","250","spektor","null","null","null","null","null","null","null","null","null","null","null","","180","200","260","200","36000","52000","[1,3]"
"","canvas-keyboard-response","126","268738","0.0-6.0-0.20","41","","","","","pre trial waiting period","null","null","","","critical","t","d","c","164","240","162.6685","237.1485","240","164","spektor","0.02","h","164","240","240","164","162.6685","237.1485","39360","39360","38576.5967","td","null","null","null","null","null","null","[1,2]"
"","canvas-keyboard-response","127","268897","0.0-6.0-1.20","41","","","","","clear_screen","null","null","","","critical","t","d","c","164","240","162.6685","237.1485","240","164","spektor","0.02","h","164","240","240","164","162.6685","237.1485","39360","39360","38576.5967","td","null","null","null","null","null","null","[1,2]"
"","canvas-keyboard-response","128","270233","0.0-6.0-2.20","41","","","","","rectangles","null","null","","","critical","t","d","c","164","240","162.6685","237.1485","240","164","spektor","0.02","h","164","240","240","164","162.6685","237.1485","39360","39360","38576.5967","td","null","null","null","null","null","null","[1,2]"
"","canvas-keyboard-response","129","270387","0.0-6.0-3.20","41","","","","","clear_screen","null","null","","","critical","t","d","c","164","240","162.6685","237.1485","240","164","spektor","0.02","h","164","240","240","164","162.6685","237.1485","39360","39360","38576.5967","td","null","null","null","null","null","null","[1,2]"
"","canvas-keyboard-response","130","271217","0.0-6.0-4.20","41","","","","","make choice","822","2","","","critical","t","d","c","164","240","162.6685","237.1485","240","164","spektor","0.02","h","164","240","240","164","162.6685","237.1485","39360","39360","38576.5967","td","null","null","null","null","null","null","[1,2]"
"","canvas-keyboard-response","131","271372","0.0-6.0-5.20","41","","","","","clear_screen","null","null","","","critical","t","d","c","164","240","162.6685","237.1485","240","164","spektor","0.02","h","164","240","240","164","162.6685","237.1485","39360","39360","38576.5967","td","null","null","null","null","null","null","[1,2]"
"","canvas-keyboard-response","132","271573","0.0-6.0-0.21","41","","","","","pre trial waiting period","null","null","","","critical","d","t","c","240","164","240","164","164","240","spektor","0","w","240","164","164","240","240","164","39360","39360","39360","td","null","null","null","null","null","null","[2,1]"
"","canvas-keyboard-response","133","271732","0.0-6.0-1.21","41","","","","","clear_screen","null","null","","","critical","d","t","c","240","164","240","164","164","240","spektor","0","w","240","164","164","240","240","164","39360","39360","39360","td","null","null","null","null","null","null","[2,1]"
"","canvas-keyboard-response","134","273071","0.0-6.0-2.21","41","","","","","rectangles","null","null","","","critical","d","t","c","240","164","240","164","164","240","spektor","0","w","240","164","164","240","240","164","39360","39360","39360","td","null","null","null","null","null","null","[2,1]"
"","canvas-keyboard-response","135","273229","0.0-6.0-3.21","41","","","","","clear_screen","null","null","","","critical","d","t","c","240","164","240","164","164","240","spektor","0","w","240","164","164","240","240","164","39360","39360","39360","td","null","null","null","null","null","null","[2,1]"
"","canvas-keyboard-response","136","273771","0.0-6.0-4.21","41","","","","","make choice","535","1","","","critical","d","t","c","240","164","240","164","164","240","spektor","0","w","240","164","164","240","240","164","39360","39360","39360","td","null","null","null","null","null","null","[2,1]"
"","canvas-keyboard-response","137","273931","0.0-6.0-5.21","41","","","","","clear_screen","null","null","","","critical","d","t","c","240","164","240","164","164","240","spektor","0","w","240","164","164","240","240","164","39360","39360","39360","td","null","null","null","null","null","null","[2,1]"
"","canvas-keyboard-response","138","274132","0.0-6.0-0.22","41","","","","","pre trial waiting period","null","null","","","catch","l","sh","sw","285","213","201","148","141","192","spektor","null","null","null","null","null","null","null","null","null","null","null","","180","200","260","200","36000","52000","[1,3]"
"","canvas-keyboard-response","139","274294","0.0-6.0-1.22","41","","","","","clear_screen","null","null","","","catch","l","sh","sw","285","213","201","148","141","192","spektor","null","null","null","null","null","null","null","null","null","null","null","","180","200","260","200","36000","52000","[1,3]"
"","canvas-keyboard-response","140","275631","0.0-6.0-2.22","41","","","","","rectangles","null","null","","","catch","l","sh","sw","285","213","201","148","141","192","spektor","null","null","null","null","null","null","null","null","null","null","null","","180","200","260","200","36000","52000","[1,3]"
"","canvas-keyboard-response","141","275791","0.0-6.0-3.22","41","","","","","clear_screen","null","null","","","catch","l","sh","sw","285","213","201","148","141","192","spektor","null","null","null","null","null","null","null","null","null","null","null","","180","200","260","200","36000","52000","[1,3]"
"","canvas-keyboard-response","142","276213","0.0-6.0-4.22","41","","","","","make choice","409","1","","","catch","l","sh","sw","285","213","201","148","141","192","spektor","null","null","null","null","null","null","null","null","null","null","null","","180","200","260","200","36000","52000","[1,3]"
"","canvas-keyboard-response","143","276374","0.0-6.0-5.22","41","","","","","clear_screen","null","null","","","catch","l","sh","sw","285","213","201","148","141","192","spektor","null","null","null","null","null","null","null","null","null","null","null","","180","200","260","200","36000","52000","[1,3]"
"","canvas-keyboard-response","144","276578","0.0-6.0-0.23","41","","","","","pre trial waiting period","null","null","","","critical","t","d","c","240","164","220.0396","154.6796","164","240","spektor","0.14","w","240","164","164","240","220.0396","154.6796","39360","39360","34035.6388","tc","null","null","null","null","null","null","[1,3]"
"","canvas-keyboard-response","145","276742","0.0-6.0-1.23","41","","","","","clear_screen","null","null","","","critical","t","d","c","240","164","220.0396","154.6796","164","240","spektor","0.14","w","240","164","164","240","220.0396","154.6796","39360","39360","34035.6388","tc","null","null","null","null","null","null","[1,3]"
"","canvas-keyboard-response","146","278078","0.0-6.0-2.23","41","","","","","rectangles","null","null","","","critical","t","d","c","240","164","220.0396","154.6796","164","240","spektor","0.14","w","240","164","164","240","220.0396","154.6796","39360","39360","34035.6388","tc","null","null","null","null","null","null","[1,3]"
"","canvas-keyboard-response","147","278238","0.0-6.0-3.23","41","","","","","clear_screen","null","null","","","critical","t","d","c","240","164","220.0396","154.6796","164","240","spektor","0.14","w","240","164","164","240","220.0396","154.6796","39360","39360","34035.6388","tc","null","null","null","null","null","null","[1,3]"
"","canvas-keyboard-response","148","279723","0.0-6.0-4.23","41","","","","","make choice","1476","3","","","critical","t","d","c","240","164","220.0396","154.6796","164","240","spektor","0.14","w","240","164","164","240","220.0396","154.6796","39360","39360","34035.6388","tc","null","null","null","null","null","null","[1,3]"
"","canvas-keyboard-response","149","279884","0.0-6.0-5.23","41","","","","","clear_screen","null","null","","","critical","t","d","c","240","164","220.0396","154.6796","164","240","spektor","0.14","w","240","164","164","240","220.0396","154.6796","39360","39360","34035.6388","tc","null","null","null","null","null","null","[1,3]"
"","canvas-keyboard-response","150","280086","0.0-6.0-0.24","41","","","","","pre trial waiting period","null","null","","","critical","d","c","t","220.0396","154.6796","164","240","240","164","spektor","0.14","w","240","164","164","240","220.0396","154.6796","39360","39360","34035.6388","dc","null","null","null","null","null","null","[1,2]"
"","canvas-keyboard-response","151","280245","0.0-6.0-1.24","41","","","","","clear_screen","null","null","","","critical","d","c","t","220.0396","154.6796","164","240","240","164","spektor","0.14","w","240","164","164","240","220.0396","154.6796","39360","39360","34035.6388","dc","null","null","null","null","null","null","[1,2]"
"","canvas-keyboard-response","152","281583","0.0-6.0-2.24","41","","","","","rectangles","null","null","","","critical","d","c","t","220.0396","154.6796","164","240","240","164","spektor","0.14","w","240","164","164","240","220.0396","154.6796","39360","39360","34035.6388","dc","null","null","null","null","null","null","[1,2]"
"","canvas-keyboard-response","153","281744","0.0-6.0-3.24","41","","","","","clear_screen","null","null","","","critical","d","c","t","220.0396","154.6796","164","240","240","164","spektor","0.14","w","240","164","164","240","220.0396","154.6796","39360","39360","34035.6388","dc","null","null","null","null","null","null","[1,2]"
"","canvas-keyboard-response","154","282714","0.0-6.0-4.24","41","","","","","make choice","962","2","","","critical","d","c","t","220.0396","154.6796","164","240","240","164","spektor","0.14","w","240","164","164","240","220.0396","154.6796","39360","39360","34035.6388","dc","null","null","null","null","null","null","[1,2]"
"","canvas-keyboard-response","155","282882","0.0-6.0-5.24","41","","","","","clear_screen","null","null","","","critical","d","c","t","220.0396","154.6796","164","240","240","164","spektor","0.14","w","240","164","164","240","220.0396","154.6796","39360","39360","34035.6388","dc","null","null","null","null","null","null","[1,2]"
"","canvas-keyboard-response","156","283083","0.0-6.0-0.25","41","","","","","pre trial waiting period","null","null","","","critical","d","t","c","237.1485","162.6685","240","164","164","240","spektor","0.02","w","240","164","164","240","237.1485","162.6685","39360","39360","38576.5967","dc","null","null","null","null","null","null","[1,3]"
"","canvas-keyboard-response","157","283243","0.0-6.0-1.25","41","","","","","clear_screen","null","null","","","critical","d","t","c","237.1485","162.6685","240","164","164","240","spektor","0.02","w","240","164","164","240","237.1485","162.6685","39360","39360","38576.5967","dc","null","null","null","null","null","null","[1,3]"
"","canvas-keyboard-response","158","284583","0.0-6.0-2.25","41","","","","","rectangles","null","null","","","critical","d","t","c","237.1485","162.6685","240","164","164","240","spektor","0.02","w","240","164","164","240","237.1485","162.6685","39360","39360","38576.5967","dc","null","null","null","null","null","null","[1,3]"
"","canvas-keyboard-response","159","284742","0.0-6.0-3.25","41","","","","","clear_screen","null","null","","","critical","d","t","c","237.1485","162.6685","240","164","164","240","spektor","0.02","w","240","164","164","240","237.1485","162.6685","39360","39360","38576.5967","dc","null","null","null","null","null","null","[1,3]"
"","canvas-keyboard-response","160","285259","0.0-6.0-4.25","41","","","","","make choice","506","1","","","critical","d","t","c","237.1485","162.6685","240","164","164","240","spektor","0.02","w","240","164","164","240","237.1485","162.6685","39360","39360","38576.5967","dc","null","null","null","null","null","null","[1,3]"
"","canvas-keyboard-response","161","285419","0.0-6.0-5.25","41","","","","","clear_screen","null","null","","","critical","d","t","c","237.1485","162.6685","240","164","164","240","spektor","0.02","w","240","164","164","240","237.1485","162.6685","39360","39360","38576.5967","dc","null","null","null","null","null","null","[1,3]"
"","canvas-keyboard-response","162","285621","0.0-6.0-0.26","41","","","","","pre trial waiting period","null","null","","","critical","d","c","t","240","164","164","240","240","164","spektor","0","w","240","164","164","240","240","164","39360","39360","39360","dc","null","null","null","null","null","null","[1,2]"
"","canvas-keyboard-response","163","285784","0.0-6.0-1.26","41","","","","","clear_screen","null","null","","","critical","d","c","t","240","164","164","240","240","164","spektor","0","w","240","164","164","240","240","164","39360","39360","39360","dc","null","null","null","null","null","null","[1,2]"
"","canvas-keyboard-response","164","287120","0.0-6.0-2.26","41","","","","","rectangles","null","null","","","critical","d","c","t","240","164","164","240","240","164","spektor","0","w","240","164","164","240","240","164","39360","39360","39360","dc","null","null","null","null","null","null","[1,2]"
"","canvas-keyboard-response","165","287279","0.0-6.0-3.26","41","","","","","clear_screen","null","null","","","critical","d","c","t","240","164","164","240","240","164","spektor","0","w","240","164","164","240","240","164","39360","39360","39360","dc","null","null","null","null","null","null","[1,2]"
"","canvas-keyboard-response","166","288843","0.0-6.0-4.26","41","","","","","make choice","1552","2","","","critical","d","c","t","240","164","164","240","240","164","spektor","0","w","240","164","164","240","240","164","39360","39360","39360","dc","null","null","null","null","null","null","[1,2]"
"","canvas-keyboard-response","167","289005","0.0-6.0-5.26","41","","","","","clear_screen","null","null","","","critical","d","c","t","240","164","164","240","240","164","spektor","0","w","240","164","164","240","240","164","39360","39360","39360","dc","null","null","null","null","null","null","[1,2]"
"","canvas-keyboard-response","168","289206","0.0-6.0-0.27","41","","","","","pre trial waiting period","null","null","","","catch","l","sw","sh","193","283","182","178","196","142","spektor","null","null","null","null","null","null","null","null","null","null","null","","180","200","260","200","36000","52000","[1,2]"
"","canvas-keyboard-response","169","289366","0.0-6.0-1.27","41","","","","","clear_screen","null","null","","","catch","l","sw","sh","193","283","182","178","196","142","spektor","null","null","null","null","null","null","null","null","null","null","null","","180","200","260","200","36000","52000","[1,2]"
"","canvas-keyboard-response","170","290702","0.0-6.0-2.27","41","","","","","rectangles","null","null","","","catch","l","sw","sh","193","283","182","178","196","142","spektor","null","null","null","null","null","null","null","null","null","null","null","","180","200","260","200","36000","52000","[1,2]"
"","canvas-keyboard-response","171","290862","0.0-6.0-3.27","41","","","","","clear_screen","null","null","","","catch","l","sw","sh","193","283","182","178","196","142","spektor","null","null","null","null","null","null","null","null","null","null","null","","180","200","260","200","36000","52000","[1,2]"
"","canvas-keyboard-response","172","291747","0.0-6.0-4.27","41","","","","","make choice","877","1","","","catch","l","sw","sh","193","283","182","178","196","142","spektor","null","null","null","null","null","null","null","null","null","null","null","","180","200","260","200","36000","52000","[1,2]"
"","canvas-keyboard-response","173","291905","0.0-6.0-5.27","41","","","","","clear_screen","null","null","","","catch","l","sw","sh","193","283","182","178","196","142","spektor","null","null","null","null","null","null","null","null","null","null","null","","180","200","260","200","36000","52000","[1,2]"
"","canvas-keyboard-response","174","292106","0.0-6.0-0.28","41","","","","","pre trial waiting period","null","null","","","critical","c","d","t","164","240","220.0396","154.6796","240","164","trueblood","0.14","w","240","164","164","240","220.0396","154.6796","39360","39360","34035.6388","tc","null","null","null","null","null","null","[3,1]"
"","canvas-keyboard-response","175","292268","0.0-6.0-1.28","41","","","","","clear_screen","null","null","","","critical","c","d","t","164","240","220.0396","154.6796","240","164","trueblood","0.14","w","240","164","164","240","220.0396","154.6796","39360","39360","34035.6388","tc","null","null","null","null","null","null","[3,1]"
"","canvas-keyboard-response","176","293606","0.0-6.0-2.28","41","","","","","rectangles","null","null","","","critical","c","d","t","164","240","220.0396","154.6796","240","164","trueblood","0.14","w","240","164","164","240","220.0396","154.6796","39360","39360","34035.6388","tc","null","null","null","null","null","null","[3,1]"
"","canvas-keyboard-response","177","293767","0.0-6.0-3.28","41","","","","","clear_screen","null","null","","","critical","c","d","t","164","240","220.0396","154.6796","240","164","trueblood","0.14","w","240","164","164","240","220.0396","154.6796","39360","39360","34035.6388","tc","null","null","null","null","null","null","[3,1]"
"","canvas-keyboard-response","178","294410","0.0-6.0-4.28","41","","","","","make choice","634","1","","","critical","c","d","t","164","240","220.0396","154.6796","240","164","trueblood","0.14","w","240","164","164","240","220.0396","154.6796","39360","39360","34035.6388","tc","null","null","null","null","null","null","[3,1]"
"","canvas-keyboard-response","179","294570","0.0-6.0-5.28","41","","","","","clear_screen","null","null","","","critical","c","d","t","164","240","220.0396","154.6796","240","164","trueblood","0.14","w","240","164","164","240","220.0396","154.6796","39360","39360","34035.6388","tc","null","null","null","null","null","null","[3,1]"
"","canvas-keyboard-response","180","294774","0.0-6.0-0.29","41","","","","","pre trial waiting period","null","null","","","catch","sw","l","sh","180","200","273","181","174","184","trueblood","null","null","null","null","null","null","null","null","null","null","null","","180","200","260","200","36000","52000","[1,2]"
"","canvas-keyboard-response","181","294932","0.0-6.0-1.29","41","","","","","clear_screen","null","null","","","catch","sw","l","sh","180","200","273","181","174","184","trueblood","null","null","null","null","null","null","null","null","null","null","null","","180","200","260","200","36000","52000","[1,2]"
"","canvas-keyboard-response","182","296272","0.0-6.0-2.29","41","","","","","rectangles","null","null","","","catch","sw","l","sh","180","200","273","181","174","184","trueblood","null","null","null","null","null","null","null","null","null","null","null","","180","200","260","200","36000","52000","[1,2]"
"","canvas-keyboard-response","183","296431","0.0-6.0-3.29","41","","","","","clear_screen","null","null","","","catch","sw","l","sh","180","200","273","181","174","184","trueblood","null","null","null","null","null","null","null","null","null","null","null","","180","200","260","200","36000","52000","[1,2]"
"","canvas-keyboard-response","184","296898","0.0-6.0-4.29","41","","","","","make choice","459","2","","","catch","sw","l","sh","180","200","273","181","174","184","trueblood","null","null","null","null","null","null","null","null","null","null","null","","180","200","260","200","36000","52000","[1,2]"
"","canvas-keyboard-response","185","297056","0.0-6.0-5.29","41","","","","","clear_screen","null","null","","","catch","sw","l","sh","180","200","273","181","174","184","trueblood","null","null","null","null","null","null","null","null","null","null","null","","180","200","260","200","36000","52000","[1,2]"
"","canvas-keyboard-response","186","297258","0.0-6.0-0.30","41","","","","","pre trial waiting period","null","null","","","critical","t","c","d","240","164","164","240","240","164","spektor","0","w","240","164","164","240","240","164","39360","39360","39360","tc","null","null","null","null","null","null","[1,2]"
"","canvas-keyboard-response","187","297420","0.0-6.0-1.30","41","","","","","clear_screen","null","null","","","critical","t","c","d","240","164","164","240","240","164","spektor","0","w","240","164","164","240","240","164","39360","39360","39360","tc","null","null","null","null","null","null","[1,2]"
"","canvas-keyboard-response","188","298754","0.0-6.0-2.30","41","","","","","rectangles","null","null","","","critical","t","c","d","240","164","164","240","240","164","spektor","0","w","240","164","164","240","240","164","39360","39360","39360","tc","null","null","null","null","null","null","[1,2]"
"","canvas-keyboard-response","189","298913","0.0-6.0-3.30","41","","","","","clear_screen","null","null","","","critical","t","c","d","240","164","164","240","240","164","spektor","0","w","240","164","164","240","240","164","39360","39360","39360","tc","null","null","null","null","null","null","[1,2]"
"","canvas-keyboard-response","190","300018","0.0-6.0-4.30","41","","","","","make choice","1093","1","","","critical","t","c","d","240","164","164","240","240","164","spektor","0","w","240","164","164","240","240","164","39360","39360","39360","tc","null","null","null","null","null","null","[1,2]"
"","canvas-keyboard-response","191","300177","0.0-6.0-5.30","41","","","","","clear_screen","null","null","","","critical","t","c","d","240","164","164","240","240","164","spektor","0","w","240","164","164","240","240","164","39360","39360","39360","tc","null","null","null","null","null","null","[1,2]"
"","canvas-keyboard-response","192","300379","0.0-6.0-0.31","41","","","","","pre trial waiting period","null","null","","","catch","l","sw","sh","248","238","206","193","201","218","spektor","null","null","null","null","null","null","null","null","null","null","null","","180","200","260","200","36000","52000","[1,3]"
"","canvas-keyboard-response","193","300537","0.0-6.0-1.31","41","","","","","clear_screen","null","null","","","catch","l","sw","sh","248","238","206","193","201","218","spektor","null","null","null","null","null","null","null","null","null","null","null","","180","200","260","200","36000","52000","[1,3]"
"","canvas-keyboard-response","194","301872","0.0-6.0-2.31","41","","","","","rectangles","null","null","","","catch","l","sw","sh","248","238","206","193","201","218","spektor","null","null","null","null","null","null","null","null","null","null","null","","180","200","260","200","36000","52000","[1,3]"
"","canvas-keyboard-response","195","302035","0.0-6.0-3.31","41","","","","","clear_screen","null","null","","","catch","l","sw","sh","248","238","206","193","201","218","spektor","null","null","null","null","null","null","null","null","null","null","null","","180","200","260","200","36000","52000","[1,3]"
"","canvas-keyboard-response","196","302474","0.0-6.0-4.31","41","","","","","make choice","429","1","","","catch","l","sw","sh","248","238","206","193","201","218","spektor","null","null","null","null","null","null","null","null","null","null","null","","180","200","260","200","36000","52000","[1,3]"
"","canvas-keyboard-response","197","302632","0.0-6.0-5.31","41","","","","","clear_screen","null","null","","","catch","l","sw","sh","248","238","206","193","201","218","spektor","null","null","null","null","null","null","null","null","null","null","null","","180","200","260","200","36000","52000","[1,3]"
"","canvas-keyboard-response","198","302834","0.0-6.0-0.32","41","","","","","pre trial waiting period","null","null","","","critical","c","t","d","240","164","164","240","164","240","spektor","0","h","164","240","240","164","164","240","39360","39360","39360","tc","null","null","null","null","null","null","[2,1]"
"","canvas-keyboard-response","199","302993","0.0-6.0-1.32","41","","","","","clear_screen","null","null","","","critical","c","t","d","240","164","164","240","164","240","spektor","0","h","164","240","240","164","164","240","39360","39360","39360","tc","null","null","null","null","null","null","[2,1]"
"","canvas-keyboard-response","200","304327","0.0-6.0-2.32","41","","","","","rectangles","null","null","","","critical","c","t","d","240","164","164","240","164","240","spektor","0","h","164","240","240","164","164","240","39360","39360","39360","tc","null","null","null","null","null","null","[2,1]"
"","canvas-keyboard-response","201","304488","0.0-6.0-3.32","41","","","","","clear_screen","null","null","","","critical","c","t","d","240","164","164","240","164","240","spektor","0","h","164","240","240","164","164","240","39360","39360","39360","tc","null","null","null","null","null","null","[2,1]"
"","canvas-keyboard-response","202","305577","0.0-6.0-4.32","41","","","","","make choice","1081","2","","","critical","c","t","d","240","164","164","240","164","240","spektor","0","h","164","240","240","164","164","240","39360","39360","39360","tc","null","null","null","null","null","null","[2,1]"
"","canvas-keyboard-response","203","305732","0.0-6.0-5.32","41","","","","","clear_screen","null","null","","","critical","c","t","d","240","164","164","240","164","240","spektor","0","h","164","240","240","164","164","240","39360","39360","39360","tc","null","null","null","null","null","null","[2,1]"
"","canvas-keyboard-response","204","305933","0.0-6.0-0.33","41","","","","","pre trial waiting period","null","null","","","critical","t","d","c","164","240","162.6685","237.1485","240","164","trueblood","0.02","h","164","240","240","164","162.6685","237.1485","39360","39360","38576.5967","dc","null","null","null","null","null","null","[2,3]"
"","canvas-keyboard-response","205","306094","0.0-6.0-1.33","41","","","","","clear_screen","null","null","","","critical","t","d","c","164","240","162.6685","237.1485","240","164","trueblood","0.02","h","164","240","240","164","162.6685","237.1485","39360","39360","38576.5967","dc","null","null","null","null","null","null","[2,3]"
"","canvas-keyboard-response","206","307428","0.0-6.0-2.33","41","","","","","rectangles","null","null","","","critical","t","d","c","164","240","162.6685","237.1485","240","164","trueblood","0.02","h","164","240","240","164","162.6685","237.1485","39360","39360","38576.5967","dc","null","null","null","null","null","null","[2,3]"
"","canvas-keyboard-response","207","307583","0.0-6.0-3.33","41","","","","","clear_screen","null","null","","","critical","t","d","c","164","240","162.6685","237.1485","240","164","trueblood","0.02","h","164","240","240","164","162.6685","237.1485","39360","39360","38576.5967","dc","null","null","null","null","null","null","[2,3]"
"","canvas-keyboard-response","208","308908","0.0-6.0-4.33","41","","","","","make choice","1309","2","","","critical","t","d","c","164","240","162.6685","237.1485","240","164","trueblood","0.02","h","164","240","240","164","162.6685","237.1485","39360","39360","38576.5967","dc","null","null","null","null","null","null","[2,3]"
"","canvas-keyboard-response","209","309072","0.0-6.0-5.33","41","","","","","clear_screen","null","null","","","critical","t","d","c","164","240","162.6685","237.1485","240","164","trueblood","0.02","h","164","240","240","164","162.6685","237.1485","39360","39360","38576.5967","dc","null","null","null","null","null","null","[2,3]"
"","canvas-keyboard-response","210","309276","0.0-6.0-0.34","41","","","","","pre trial waiting period","null","null","","","catch","sw","l","sh","180","200","228","190","200","196","spektor","null","null","null","null","null","null","null","null","null","null","null","","180","200","260","200","36000","52000","[1,2]"
"","canvas-keyboard-response","211","309435","0.0-6.0-1.34","41","","","","","clear_screen","null","null","","","catch","sw","l","sh","180","200","228","190","200","196","spektor","null","null","null","null","null","null","null","null","null","null","null","","180","200","260","200","36000","52000","[1,2]"
"","canvas-keyboard-response","212","310767","0.0-6.0-2.34","41","","","","","rectangles","null","null","","","catch","sw","l","sh","180","200","228","190","200","196","spektor","null","null","null","null","null","null","null","null","null","null","null","","180","200","260","200","36000","52000","[1,2]"
"","canvas-keyboard-response","213","310927","0.0-6.0-3.34","41","","","","","clear_screen","null","null","","","catch","sw","l","sh","180","200","228","190","200","196","spektor","null","null","null","null","null","null","null","null","null","null","null","","180","200","260","200","36000","52000","[1,2]"
"","canvas-keyboard-response","214","311315","0.0-6.0-4.34","41","","","","","make choice","374","2","","","catch","sw","l","sh","180","200","228","190","200","196","spektor","null","null","null","null","null","null","null","null","null","null","null","","180","200","260","200","36000","52000","[1,2]"
"","canvas-keyboard-response","215","311475","0.0-6.0-5.34","41","","","","","clear_screen","null","null","","","catch","sw","l","sh","180","200","228","190","200","196","spektor","null","null","null","null","null","null","null","null","null","null","null","","180","200","260","200","36000","52000","[1,2]"
"","canvas-keyboard-response","216","311678","0.0-6.0-0.35","41","","","","","pre trial waiting period","null","null","","","catch","sh","sw","l","223","178","144","201","220","228","trueblood","null","null","null","null","null","null","null","null","null","null","null","","180","200","260","200","36000","52000","[1,3]"
"","canvas-keyboard-response","217","311837","0.0-6.0-1.35","41","","","","","clear_screen","null","null","","","catch","sh","sw","l","223","178","144","201","220","228","trueblood","null","null","null","null","null","null","null","null","null","null","null","","180","200","260","200","36000","52000","[1,3]"
"","canvas-keyboard-response","218","313174","0.0-6.0-2.35","41","","","","","rectangles","null","null","","","catch","sh","sw","l","223","178","144","201","220","228","trueblood","null","null","null","null","null","null","null","null","null","null","null","","180","200","260","200","36000","52000","[1,3]"
"","canvas-keyboard-response","219","313339","0.0-6.0-3.35","41","","","","","clear_screen","null","null","","","catch","sh","sw","l","223","178","144","201","220","228","trueblood","null","null","null","null","null","null","null","null","null","null","null","","180","200","260","200","36000","52000","[1,3]"
"","canvas-keyboard-response","220","313723","0.0-6.0-4.35","41","","","","","make choice","370","3","","","catch","sh","sw","l","223","178","144","201","220","228","trueblood","null","null","null","null","null","null","null","null","null","null","null","","180","200","260","200","36000","52000","[1,3]"
"","canvas-keyboard-response","221","313880","0.0-6.0-5.35","41","","","","","clear_screen","null","null","","","catch","sh","sw","l","223","178","144","201","220","228","trueblood","null","null","null","null","null","null","null","null","null","null","null","","180","200","260","200","36000","52000","[1,3]"
"","canvas-keyboard-response","222","314082","0.0-6.0-0.36","41","","","","","pre trial waiting period","null","null","","","critical","d","c","t","160.6713","232.8713","240","164","164","240","spektor","0.05","h","164","240","240","164","160.6713","232.8713","39360","39360","37415.7294","tc","null","null","null","null","null","null","[3,2]"
"","canvas-keyboard-response","223","314241","0.0-6.0-1.36","41","","","","","clear_screen","null","null","","","critical","d","c","t","160.6713","232.8713","240","164","164","240","spektor","0.05","h","164","240","240","164","160.6713","232.8713","39360","39360","37415.7294","tc","null","null","null","null","null","null","[3,2]"
"","canvas-keyboard-response","224","315578","0.0-6.0-2.36","41","","","","","rectangles","null","null","","","critical","d","c","t","160.6713","232.8713","240","164","164","240","spektor","0.05","h","164","240","240","164","160.6713","232.8713","39360","39360","37415.7294","tc","null","null","null","null","null","null","[3,2]"
"","canvas-keyboard-response","225","315737","0.0-6.0-3.36","41","","","","","clear_screen","null","null","","","critical","d","c","t","160.6713","232.8713","240","164","164","240","spektor","0.05","h","164","240","240","164","160.6713","232.8713","39360","39360","37415.7294","tc","null","null","null","null","null","null","[3,2]"
"","canvas-keyboard-response","226","316378","0.0-6.0-4.36","41","","","","","make choice","631","3","","","critical","d","c","t","160.6713","232.8713","240","164","164","240","spektor","0.05","h","164","240","240","164","160.6713","232.8713","39360","39360","37415.7294","tc","null","null","null","null","null","null","[3,2]"
"","canvas-keyboard-response","227","316538","0.0-6.0-5.36","41","","","","","clear_screen","null","null","","","critical","d","c","t","160.6713","232.8713","240","164","164","240","spektor","0.05","h","164","240","240","164","160.6713","232.8713","39360","39360","37415.7294","tc","null","null","null","null","null","null","[3,2]"
"","canvas-keyboard-response","228","316739","0.0-6.0-0.37","41","","","","","pre trial waiting period","null","null","","","critical","d","c","t","220.0396","154.6796","164","240","240","164","trueblood","0.14","w","240","164","164","240","220.0396","154.6796","39360","39360","34035.6388","td","null","null","null","null","null","null","[3,1]"
"","canvas-keyboard-response","229","316903","0.0-6.0-1.37","41","","","","","clear_screen","null","null","","","critical","d","c","t","220.0396","154.6796","164","240","240","164","trueblood","0.14","w","240","164","164","240","220.0396","154.6796","39360","39360","34035.6388","td","null","null","null","null","null","null","[3,1]"
"","canvas-keyboard-response","230","318238","0.0-6.0-2.37","41","","","","","rectangles","null","null","","","critical","d","c","t","220.0396","154.6796","164","240","240","164","trueblood","0.14","w","240","164","164","240","220.0396","154.6796","39360","39360","34035.6388","td","null","null","null","null","null","null","[3,1]"
"","canvas-keyboard-response","231","318400","0.0-6.0-3.37","41","","","","","clear_screen","null","null","","","critical","d","c","t","220.0396","154.6796","164","240","240","164","trueblood","0.14","w","240","164","164","240","220.0396","154.6796","39360","39360","34035.6388","td","null","null","null","null","null","null","[3,1]"
"","canvas-keyboard-response","232","321146","0.0-6.0-4.37","41","","","","","make choice","2733","3","","","critical","d","c","t","220.0396","154.6796","164","240","240","164","trueblood","0.14","w","240","164","164","240","220.0396","154.6796","39360","39360","34035.6388","td","null","null","null","null","null","null","[3,1]"
"","canvas-keyboard-response","233","321307","0.0-6.0-5.37","41","","","","","clear_screen","null","null","","","critical","d","c","t","220.0396","154.6796","164","240","240","164","trueblood","0.14","w","240","164","164","240","220.0396","154.6796","39360","39360","34035.6388","td","null","null","null","null","null","null","[3,1]"
"","canvas-keyboard-response","234","321509","0.0-6.0-0.38","41","","","","","pre trial waiting period","null","null","","","critical","d","t","c","237.1485","162.6685","240","164","164","240","trueblood","0.02","w","240","164","164","240","237.1485","162.6685","39360","39360","38576.5967","dc","null","null","null","null","null","null","[1,3]"
"","canvas-keyboard-response","235","321664","0.0-6.0-1.38","41","","","","","clear_screen","null","null","","","critical","d","t","c","237.1485","162.6685","240","164","164","240","trueblood","0.02","w","240","164","164","240","237.1485","162.6685","39360","39360","38576.5967","dc","null","null","null","null","null","null","[1,3]"
"","canvas-keyboard-response","236","322999","0.0-6.0-2.38","41","","","","","rectangles","null","null","","","critical","d","t","c","237.1485","162.6685","240","164","164","240","trueblood","0.02","w","240","164","164","240","237.1485","162.6685","39360","39360","38576.5967","dc","null","null","null","null","null","null","[1,3]"
"","canvas-keyboard-response","237","323157","0.0-6.0-3.38","41","","","","","clear_screen","null","null","","","critical","d","t","c","237.1485","162.6685","240","164","164","240","trueblood","0.02","w","240","164","164","240","237.1485","162.6685","39360","39360","38576.5967","dc","null","null","null","null","null","null","[1,3]"
"","canvas-keyboard-response","238","324099","0.0-6.0-4.38","41","","","","","make choice","930","3","","","critical","d","t","c","237.1485","162.6685","240","164","164","240","trueblood","0.02","w","240","164","164","240","237.1485","162.6685","39360","39360","38576.5967","dc","null","null","null","null","null","null","[1,3]"
"","canvas-keyboard-response","239","324259","0.0-6.0-5.38","41","","","","","clear_screen","null","null","","","critical","d","t","c","237.1485","162.6685","240","164","164","240","trueblood","0.02","w","240","164","164","240","237.1485","162.6685","39360","39360","38576.5967","dc","null","null","null","null","null","null","[1,3]"
"","canvas-keyboard-response","240","324461","0.0-6.0-0.39","41","","","","","pre trial waiting period","null","null","","","critical","d","c","t","158.0083","227.1683","240","164","164","240","trueblood","0.09","h","164","240","240","164","158.0083","227.1683","39360","39360","35894.4834","td","null","null","null","null","null","null","[3,1]"
"","canvas-keyboard-response","241","324623","0.0-6.0-1.39","41","","","","","clear_screen","null","null","","","critical","d","c","t","158.0083","227.1683","240","164","164","240","trueblood","0.09","h","164","240","240","164","158.0083","227.1683","39360","39360","35894.4834","td","null","null","null","null","null","null","[3,1]"
"","canvas-keyboard-response","242","325962","0.0-6.0-2.39","41","","","","","rectangles","null","null","","","critical","d","c","t","158.0083","227.1683","240","164","164","240","trueblood","0.09","h","164","240","240","164","158.0083","227.1683","39360","39360","35894.4834","td","null","null","null","null","null","null","[3,1]"
"","canvas-keyboard-response","243","326121","0.0-6.0-3.39","41","","","","","clear_screen","null","null","","","critical","d","c","t","158.0083","227.1683","240","164","164","240","trueblood","0.09","h","164","240","240","164","158.0083","227.1683","39360","39360","35894.4834","td","null","null","null","null","null","null","[3,1]"
"","canvas-keyboard-response","244","326515","0.0-6.0-4.39","41","","","","","make choice","385","3","","","critical","d","c","t","158.0083","227.1683","240","164","164","240","trueblood","0.09","h","164","240","240","164","158.0083","227.1683","39360","39360","35894.4834","td","null","null","null","null","null","null","[3,1]"
"","canvas-keyboard-response","245","326674","0.0-6.0-5.39","41","","","","","clear_screen","null","null","","","critical","d","c","t","158.0083","227.1683","240","164","164","240","trueblood","0.09","h","164","240","240","164","158.0083","227.1683","39360","39360","35894.4834","td","null","null","null","null","null","null","[3,1]"
"","canvas-keyboard-response","246","326878","0.0-6.0-0.40","41","","","","","pre trial waiting period","null","null","","","critical","t","c","d","240","164","164","240","237.1485","162.6685","trueblood","0.02","w","240","164","164","240","237.1485","162.6685","39360","39360","38576.5967","td","null","null","null","null","null","null","[1,3]"
"","canvas-keyboard-response","247","327038","0.0-6.0-1.40","41","","","","","clear_screen","null","null","","","critical","t","c","d","240","164","164","240","237.1485","162.6685","trueblood","0.02","w","240","164","164","240","237.1485","162.6685","39360","39360","38576.5967","td","null","null","null","null","null","null","[1,3]"
"","canvas-keyboard-response","248","328375","0.0-6.0-2.40","41","","","","","rectangles","null","null","","","critical","t","c","d","240","164","164","240","237.1485","162.6685","trueblood","0.02","w","240","164","164","240","237.1485","162.6685","39360","39360","38576.5967","td","null","null","null","null","null","null","[1,3]"
"","canvas-keyboard-response","249","328537","0.0-6.0-3.40","41","","","","","clear_screen","null","null","","","critical","t","c","d","240","164","164","240","237.1485","162.6685","trueblood","0.02","w","240","164","164","240","237.1485","162.6685","39360","39360","38576.5967","td","null","null","null","null","null","null","[1,3]"
"","canvas-keyboard-response","250","329658","0.0-6.0-4.40","41","","","","","make choice","1117","1","","","critical","t","c","d","240","164","164","240","237.1485","162.6685","trueblood","0.02","w","240","164","164","240","237.1485","162.6685","39360","39360","38576.5967","td","null","null","null","null","null","null","[1,3]"
"","canvas-keyboard-response","251","329820","0.0-6.0-5.40","41","","","","","clear_screen","null","null","","","critical","t","c","d","240","164","164","240","237.1485","162.6685","trueblood","0.02","w","240","164","164","240","237.1485","162.6685","39360","39360","38576.5967","td","null","null","null","null","null","null","[1,3]"
"","canvas-keyboard-response","252","330021","0.0-6.0-0.41","41","","","","","pre trial waiting period","null","null","","","critical","d","c","t","240","164","164","240","240","164","trueblood","0","w","240","164","164","240","240","164","39360","39360","39360","td","null","null","null","null","null","null","[3,1]"
"","canvas-keyboard-response","253","330181","0.0-6.0-1.41","41","","","","","clear_screen","null","null","","","critical","d","c","t","240","164","164","240","240","164","trueblood","0","w","240","164","164","240","240","164","39360","39360","39360","td","null","null","null","null","null","null","[3,1]"
"","canvas-keyboard-response","254","331521","0.0-6.0-2.41","41","","","","","rectangles","null","null","","","critical","d","c","t","240","164","164","240","240","164","trueblood","0","w","240","164","164","240","240","164","39360","39360","39360","td","null","null","null","null","null","null","[3,1]"
"","canvas-keyboard-response","255","331679","0.0-6.0-3.41","41","","","","","clear_screen","null","null","","","critical","d","c","t","240","164","164","240","240","164","trueblood","0","w","240","164","164","240","240","164","39360","39360","39360","td","null","null","null","null","null","null","[3,1]"
"","canvas-keyboard-response","256","332660","0.0-6.0-4.41","41","","","","","make choice","970","3","","","critical","d","c","t","240","164","164","240","240","164","trueblood","0","w","240","164","164","240","240","164","39360","39360","39360","td","null","null","null","null","null","null","[3,1]"
"","canvas-keyboard-response","257","332816","0.0-6.0-5.41","41","","","","","clear_screen","null","null","","","critical","d","c","t","240","164","164","240","240","164","trueblood","0","w","240","164","164","240","240","164","39360","39360","39360","td","null","null","null","null","null","null","[3,1]"
"","canvas-keyboard-response","258","333018","0.0-6.0-0.42","41","","","","","pre trial waiting period","null","null","","","catch","sh","sw","l","227","186","200","193","237","238","trueblood","null","null","null","null","null","null","null","null","null","null","null","","180","200","260","200","36000","52000","[2,3]"
"","canvas-keyboard-response","259","333179","0.0-6.0-1.42","41","","","","","clear_screen","null","null","","","catch","sh","sw","l","227","186","200","193","237","238","trueblood","null","null","null","null","null","null","null","null","null","null","null","","180","200","260","200","36000","52000","[2,3]"
"","canvas-keyboard-response","260","334517","0.0-6.0-2.42","41","","","","","rectangles","null","null","","","catch","sh","sw","l","227","186","200","193","237","238","trueblood","null","null","null","null","null","null","null","null","null","null","null","","180","200","260","200","36000","52000","[2,3]"
"","canvas-keyboard-response","261","334679","0.0-6.0-3.42","41","","","","","clear_screen","null","null","","","catch","sh","sw","l","227","186","200","193","237","238","trueblood","null","null","null","null","null","null","null","null","null","null","null","","180","200","260","200","36000","52000","[2,3]"
"","canvas-keyboard-response","262","335115","0.0-6.0-4.42","41","","","","","make choice","426","3","","","catch","sh","sw","l","227","186","200","193","237","238","trueblood","null","null","null","null","null","null","null","null","null","null","null","","180","200","260","200","36000","52000","[2,3]"
"","canvas-keyboard-response","263","335275","0.0-6.0-5.42","41","","","","","clear_screen","null","null","","","catch","sh","sw","l","227","186","200","193","237","238","trueblood","null","null","null","null","null","null","null","null","null","null","null","","180","200","260","200","36000","52000","[2,3]"
"","canvas-keyboard-response","264","335477","0.0-6.0-0.43","41","","","","","pre trial waiting period","null","null","","","catch","sw","sh","l","180","200","161","192","172","247","trueblood","null","null","null","null","null","null","null","null","null","null","null","","180","200","260","200","36000","52000","[2,3]"
"","canvas-keyboard-response","265","335639","0.0-6.0-1.43","41","","","","","clear_screen","null","null","","","catch","sw","sh","l","180","200","161","192","172","247","trueblood","null","null","null","null","null","null","null","null","null","null","null","","180","200","260","200","36000","52000","[2,3]"
"","canvas-keyboard-response","266","336975","0.0-6.0-2.43","41","","","","","rectangles","null","null","","","catch","sw","sh","l","180","200","161","192","172","247","trueblood","null","null","null","null","null","null","null","null","null","null","null","","180","200","260","200","36000","52000","[2,3]"
"","canvas-keyboard-response","267","337137","0.0-6.0-3.43","41","","","","","clear_screen","null","null","","","catch","sw","sh","l","180","200","161","192","172","247","trueblood","null","null","null","null","null","null","null","null","null","null","null","","180","200","260","200","36000","52000","[2,3]"
"","canvas-keyboard-response","268","337650","0.0-6.0-4.43","41","","","","","make choice","506","3","","","catch","sw","sh","l","180","200","161","192","172","247","trueblood","null","null","null","null","null","null","null","null","null","null","null","","180","200","260","200","36000","52000","[2,3]"
"","canvas-keyboard-response","269","337810","0.0-6.0-5.43","41","","","","","clear_screen","null","null","","","catch","sw","sh","l","180","200","161","192","172","247","trueblood","null","null","null","null","null","null","null","null","null","null","null","","180","200","260","200","36000","52000","[2,3]"
"","canvas-keyboard-response","270","338011","0.0-6.0-0.44","41","","","","","pre trial waiting period","null","null","","","critical","t","d","c","164","240","164","240","240","164","trueblood","0","h","164","240","240","164","164","240","39360","39360","39360","dc","null","null","null","null","null","null","[2,3]"
"","canvas-keyboard-response","271","338175","0.0-6.0-1.44","41","","","","","clear_screen","null","null","","","critical","t","d","c","164","240","164","240","240","164","trueblood","0","h","164","240","240","164","164","240","39360","39360","39360","dc","null","null","null","null","null","null","[2,3]"
"","canvas-keyboard-response","272","339514","0.0-6.0-2.44","41","","","","","rectangles","null","null","","","critical","t","d","c","164","240","164","240","240","164","trueblood","0","h","164","240","240","164","164","240","39360","39360","39360","dc","null","null","null","null","null","null","[2,3]"
"","canvas-keyboard-response","273","339677","0.0-6.0-3.44","41","","","","","clear_screen","null","null","","","critical","t","d","c","164","240","164","240","240","164","trueblood","0","h","164","240","240","164","164","240","39360","39360","39360","dc","null","null","null","null","null","null","[2,3]"
"","canvas-keyboard-response","274","340843","0.0-6.0-4.44","41","","","","","make choice","1157","2","","","critical","t","d","c","164","240","164","240","240","164","trueblood","0","h","164","240","240","164","164","240","39360","39360","39360","dc","null","null","null","null","null","null","[2,3]"
"","canvas-keyboard-response","275","341001","0.0-6.0-5.44","41","","","","","clear_screen","null","null","","","critical","t","d","c","164","240","164","240","240","164","trueblood","0","h","164","240","240","164","164","240","39360","39360","39360","dc","null","null","null","null","null","null","[2,3]"
"","canvas-keyboard-response","276","341202","0.0-6.0-0.45","41","","","","","pre trial waiting period","null","null","","","critical","t","c","d","240","164","164","240","220.0396","154.6796","spektor","0.14","w","240","164","164","240","220.0396","154.6796","39360","39360","34035.6388","td","null","null","null","null","null","null","[1,3]"
"","canvas-keyboard-response","277","341366","0.0-6.0-1.45","41","","","","","clear_screen","null","null","","","critical","t","c","d","240","164","164","240","220.0396","154.6796","spektor","0.14","w","240","164","164","240","220.0396","154.6796","39360","39360","34035.6388","td","null","null","null","null","null","null","[1,3]"
"","canvas-keyboard-response","278","342701","0.0-6.0-2.45","41","","","","","rectangles","null","null","","","critical","t","c","d","240","164","164","240","220.0396","154.6796","spektor","0.14","w","240","164","164","240","220.0396","154.6796","39360","39360","34035.6388","td","null","null","null","null","null","null","[1,3]"
"","canvas-keyboard-response","279","342860","0.0-6.0-3.45","41","","","","","clear_screen","null","null","","","critical","t","c","d","240","164","164","240","220.0396","154.6796","spektor","0.14","w","240","164","164","240","220.0396","154.6796","39360","39360","34035.6388","td","null","null","null","null","null","null","[1,3]"
"","canvas-keyboard-response","280","344060","0.0-6.0-4.45","41","","","","","make choice","1187","3","","","critical","t","c","d","240","164","164","240","220.0396","154.6796","spektor","0.14","w","240","164","164","240","220.0396","154.6796","39360","39360","34035.6388","td","null","null","null","null","null","null","[1,3]"
"","canvas-keyboard-response","281","344223","0.0-6.0-5.45","41","","","","","clear_screen","null","null","","","critical","t","c","d","240","164","164","240","220.0396","154.6796","spektor","0.14","w","240","164","164","240","220.0396","154.6796","39360","39360","34035.6388","td","null","null","null","null","null","null","[1,3]"
"","canvas-keyboard-response","282","344427","0.0-6.0-0.46","41","","","","","pre trial waiting period","null","null","","","catch","sh","sw","l","193","212","152","203","274","179","spektor","null","null","null","null","null","null","null","null","null","null","null","","180","200","260","200","36000","52000","[1,3]"
"","canvas-keyboard-response","283","344587","0.0-6.0-1.46","41","","","","","clear_screen","null","null","","","catch","sh","sw","l","193","212","152","203","274","179","spektor","null","null","null","null","null","null","null","null","null","null","null","","180","200","260","200","36000","52000","[1,3]"
"","canvas-keyboard-response","284","345923","0.0-6.0-2.46","41","","","","","rectangles","null","null","","","catch","sh","sw","l","193","212","152","203","274","179","spektor","null","null","null","null","null","null","null","null","null","null","null","","180","200","260","200","36000","52000","[1,3]"
"","canvas-keyboard-response","285","346082","0.0-6.0-3.46","41","","","","","clear_screen","null","null","","","catch","sh","sw","l","193","212","152","203","274","179","spektor","null","null","null","null","null","null","null","null","null","null","null","","180","200","260","200","36000","52000","[1,3]"
"","canvas-keyboard-response","286","346899","0.0-6.0-4.46","41","","","","","make choice","806","3","","","catch","sh","sw","l","193","212","152","203","274","179","spektor","null","null","null","null","null","null","null","null","null","null","null","","180","200","260","200","36000","52000","[1,3]"
"","canvas-keyboard-response","287","347060","0.0-6.0-5.46","41","","","","","clear_screen","null","null","","","catch","sh","sw","l","193","212","152","203","274","179","spektor","null","null","null","null","null","null","null","null","null","null","null","","180","200","260","200","36000","52000","[1,3]"
"","canvas-keyboard-response","288","347263","0.0-6.0-0.47","41","","","","","pre trial waiting period","null","null","","","critical","c","d","t","164","240","232.8713","160.6713","240","164","trueblood","0.05","w","240","164","164","240","232.8713","160.6713","39360","39360","37415.7294","dc","null","null","null","null","null","null","[2,1]"
"","canvas-keyboard-response","289","347425","0.0-6.0-1.47","41","","","","","clear_screen","null","null","","","critical","c","d","t","164","240","232.8713","160.6713","240","164","trueblood","0.05","w","240","164","164","240","232.8713","160.6713","39360","39360","37415.7294","dc","null","null","null","null","null","null","[2,1]"
"","canvas-keyboard-response","290","348763","0.0-6.0-2.47","41","","","","","rectangles","null","null","","","critical","c","d","t","164","240","232.8713","160.6713","240","164","trueblood","0.05","w","240","164","164","240","232.8713","160.6713","39360","39360","37415.7294","dc","null","null","null","null","null","null","[2,1]"
"","canvas-keyboard-response","291","348926","0.0-6.0-3.47","41","","","","","clear_screen","null","null","","","critical","c","d","t","164","240","232.8713","160.6713","240","164","trueblood","0.05","w","240","164","164","240","232.8713","160.6713","39360","39360","37415.7294","dc","null","null","null","null","null","null","[2,1]"
"","canvas-keyboard-response","292","349652","0.0-6.0-4.47","41","","","","","make choice","711","1","","","critical","c","d","t","164","240","232.8713","160.6713","240","164","trueblood","0.05","w","240","164","164","240","232.8713","160.6713","39360","39360","37415.7294","dc","null","null","null","null","null","null","[2,1]"
"","canvas-keyboard-response","293","349807","0.0-6.0-5.47","41","","","","","clear_screen","null","null","","","critical","c","d","t","164","240","232.8713","160.6713","240","164","trueblood","0.05","w","240","164","164","240","232.8713","160.6713","39360","39360","37415.7294","dc","null","null","null","null","null","null","[2,1]"
"","canvas-keyboard-response","294","350009","0.0-6.0-0.48","41","","","","","pre trial waiting period","null","null","","","critical","c","d","t","240","164","160.6713","232.8713","164","240","trueblood","0.05","h","164","240","240","164","160.6713","232.8713","39360","39360","37415.7294","dc","null","null","null","null","null","null","[2,1]"
"","canvas-keyboard-response","295","350168","0.0-6.0-1.48","41","","","","","clear_screen","null","null","","","critical","c","d","t","240","164","160.6713","232.8713","164","240","trueblood","0.05","h","164","240","240","164","160.6713","232.8713","39360","39360","37415.7294","dc","null","null","null","null","null","null","[2,1]"
"","canvas-keyboard-response","296","351503","0.0-6.0-2.48","41","","","","","rectangles","null","null","","","critical","c","d","t","240","164","160.6713","232.8713","164","240","trueblood","0.05","h","164","240","240","164","160.6713","232.8713","39360","39360","37415.7294","dc","null","null","null","null","null","null","[2,1]"
"","canvas-keyboard-response","297","351663","0.0-6.0-3.48","41","","","","","clear_screen","null","null","","","critical","c","d","t","240","164","160.6713","232.8713","164","240","trueblood","0.05","h","164","240","240","164","160.6713","232.8713","39360","39360","37415.7294","dc","null","null","null","null","null","null","[2,1]"
"","canvas-keyboard-response","298","352995","0.0-6.0-4.48","41","","","","","make choice","1327","2","","","critical","c","d","t","240","164","160.6713","232.8713","164","240","trueblood","0.05","h","164","240","240","164","160.6713","232.8713","39360","39360","37415.7294","dc","null","null","null","null","null","null","[2,1]"
"","canvas-keyboard-response","299","353156","0.0-6.0-5.48","41","","","","","clear_screen","null","null","","","critical","c","d","t","240","164","160.6713","232.8713","164","240","trueblood","0.05","h","164","240","240","164","160.6713","232.8713","39360","39360","37415.7294","dc","null","null","null","null","null","null","[2,1]"
"","canvas-keyboard-response","300","353358","0.0-6.0-0.49","41","","","","","pre trial waiting period","null","null","","","critical","t","c","d","240","164","164","240","232.8713","160.6713","trueblood","0.05","w","240","164","164","240","232.8713","160.6713","39360","39360","37415.7294","td","null","null","null","null","null","null","[1,3]"
"","canvas-keyboard-response","301","353521","0.0-6.0-1.49","41","","","","","clear_screen","null","null","","","critical","t","c","d","240","164","164","240","232.8713","160.6713","trueblood","0.05","w","240","164","164","240","232.8713","160.6713","39360","39360","37415.7294","td","null","null","null","null","null","null","[1,3]"
"","canvas-keyboard-response","302","354859","0.0-6.0-2.49","41","","","","","rectangles","null","null","","","critical","t","c","d","240","164","164","240","232.8713","160.6713","trueblood","0.05","w","240","164","164","240","232.8713","160.6713","39360","39360","37415.7294","td","null","null","null","null","null","null","[1,3]"
"","canvas-keyboard-response","303","355017","0.0-6.0-3.49","41","","","","","clear_screen","null","null","","","critical","t","c","d","240","164","164","240","232.8713","160.6713","trueblood","0.05","w","240","164","164","240","232.8713","160.6713","39360","39360","37415.7294","td","null","null","null","null","null","null","[1,3]"
"","canvas-keyboard-response","304","357203","0.0-6.0-4.49","41","","","","","make choice","2176","3","","","critical","t","c","d","240","164","164","240","232.8713","160.6713","trueblood","0.05","w","240","164","164","240","232.8713","160.6713","39360","39360","37415.7294","td","null","null","null","null","null","null","[1,3]"
"","canvas-keyboard-response","305","357361","0.0-6.0-5.49","41","","","","","clear_screen","null","null","","","critical","t","c","d","240","164","164","240","232.8713","160.6713","trueblood","0.05","w","240","164","164","240","232.8713","160.6713","39360","39360","37415.7294","td","null","null","null","null","null","null","[1,3]"
"","canvas-keyboard-response","306","357564","0.0-6.0-0.50","41","","","","","pre trial waiting period","null","null","","","catch","sw","sh","l","180","200","167","210","210","235","trueblood","null","null","null","null","null","null","null","null","null","null","null","","180","200","260","200","36000","52000","[1,3]"
"","canvas-keyboard-response","307","357724","0.0-6.0-1.50","41","","","","","clear_screen","null","null","","","catch","sw","sh","l","180","200","167","210","210","235","trueblood","null","null","null","null","null","null","null","null","null","null","null","","180","200","260","200","36000","52000","[1,3]"
"","canvas-keyboard-response","308","359059","0.0-6.0-2.50","41","","","","","rectangles","null","null","","","catch","sw","sh","l","180","200","167","210","210","235","trueblood","null","null","null","null","null","null","null","null","null","null","null","","180","200","260","200","36000","52000","[1,3]"
"","canvas-keyboard-response","309","359221","0.0-6.0-3.50","41","","","","","clear_screen","null","null","","","catch","sw","sh","l","180","200","167","210","210","235","trueblood","null","null","null","null","null","null","null","null","null","null","null","","180","200","260","200","36000","52000","[1,3]"
