"success","trial_type","trial_index","time_elapsed","internal_node_id","sub_n","timeout","failed_images","failed_audio","failed_video","screen_id","rt","response","stimulus","view_history","trial","r1","r2","r3","w1","h1","w2","h2","w3","h3","display","tdd","tdo","tw","th","cw","ch","dw","dh","ta","ca","da","probe","csls","csss","clls","clss","sa","la","probe_rects"
"true","fullscreen","0","2413","0.0-0.0","34","","","","","","","","","","","","","","","","","","","","","","","","","","","","","","","","","","","","","","",""
"true","preload","1","2427","0.0-1.0","34","false","[]","[]","[]","img preload","","","","","","","","","","","","","","","","","","","","","","","","","","","","","","","","","",""
"","survey-html-form","2","15909","0.0-2.0","34","","","","","enter-sub-number","13474","{""response"":""34""}","","","","","","","","","","","","","","","","","","","","","","","","","","","","","","","",""
"","image-button-response","3","74015","0.0-3.0","34","","","","","","58041","0","consent.png","","","","","","","","","","","","","","","","","","","","","","","","","","","","","","",""
"","html-button-response","4","109822","0.0-4.0","34","","","","","intro mssg","35801","0","<div style= ""font-size:25px;"" <p> <strong> Welcome! </strong><br> <p style=""color:#8B0000; font-size:25px;""><strong> Please do NOT exit full screen until you are done with the experiment. </strong> </p><p style=""font-size:25px;color:#8B0000;""> <strong> Your data will be lost <br> if you try to go back or refresh the page after the experiment starts. Feel free to click ""previous"" during the instructions, however.</strong> </p><br><p> <strong> Thanks in advance for your contribution to our research! </strong></p>","","","","","","","","","","","","","","","","","","","","","","","","","","","","","","",""
"","instructions","5","195469","0.0-5.0","34","","","","","instructions","85643","","","[{""page_index"":0,""viewing_time"":14684},{""page_index"":1,""viewing_time"":18944},{""page_index"":2,""viewing_time"":5295},{""page_index"":3,""viewing_time"":22502},{""page_index"":4,""viewing_time"":10234},{""page_index"":5,""viewing_time"":3985},{""page_index"":6,""viewing_time"":5679},{""page_index"":7,""viewing_time"":4319}]","","","","","","","","","","","","","","","","","","","","","","","","","","","","","",""
"","canvas-keyboard-response","6","195673","0.0-6.0-0.0","34","","","","","pre trial waiting period","null","null","","","critical","t","d","c","240","164","237.1485","162.6685","164","240","spektor","0.02","w","240","164","164","240","237.1485","162.6685","39360","39360","38576.5967","dc","null","null","null","null","null","null","[2,3]"
"","canvas-keyboard-response","7","195836","0.0-6.0-1.0","34","","","","","clear_screen","null","null","","","critical","t","d","c","240","164","237.1485","162.6685","164","240","spektor","0.02","w","240","164","164","240","237.1485","162.6685","39360","39360","38576.5967","dc","null","null","null","null","null","null","[2,3]"
"","canvas-keyboard-response","8","197177","0.0-6.0-2.0","34","","","","","rectangles","null","null","","","critical","t","d","c","240","164","237.1485","162.6685","164","240","spektor","0.02","w","240","164","164","240","237.1485","162.6685","39360","39360","38576.5967","dc","null","null","null","null","null","null","[2,3]"
"","canvas-keyboard-response","9","197339","0.0-6.0-3.0","34","","","","","clear_screen","null","null","","","critical","t","d","c","240","164","237.1485","162.6685","164","240","spektor","0.02","w","240","164","164","240","237.1485","162.6685","39360","39360","38576.5967","dc","null","null","null","null","null","null","[2,3]"
"","canvas-keyboard-response","10","201310","0.0-6.0-4.0","34","","","","","make choice","3958","3","","","critical","t","d","c","240","164","237.1485","162.6685","164","240","spektor","0.02","w","240","164","164","240","237.1485","162.6685","39360","39360","38576.5967","dc","null","null","null","null","null","null","[2,3]"
"","canvas-keyboard-response","11","201470","0.0-6.0-5.0","34","","","","","clear_screen","null","null","","","critical","t","d","c","240","164","237.1485","162.6685","164","240","spektor","0.02","w","240","164","164","240","237.1485","162.6685","39360","39360","38576.5967","dc","null","null","null","null","null","null","[2,3]"
"","canvas-keyboard-response","12","201672","0.0-6.0-0.1","34","","","","","pre trial waiting period","null","null","","","catch","l","sh","sw","231","260","193","181","172","160","spektor","null","null","null","null","null","null","null","null","null","null","null","","180","200","260","200","36000","52000","[1,3]"
"","canvas-keyboard-response","13","201837","0.0-6.0-1.1","34","","","","","clear_screen","null","null","","","catch","l","sh","sw","231","260","193","181","172","160","spektor","null","null","null","null","null","null","null","null","null","null","null","","180","200","260","200","36000","52000","[1,3]"
"","canvas-keyboard-response","14","203177","0.0-6.0-2.1","34","","","","","rectangles","null","null","","","catch","l","sh","sw","231","260","193","181","172","160","spektor","null","null","null","null","null","null","null","null","null","null","null","","180","200","260","200","36000","52000","[1,3]"
"","canvas-keyboard-response","15","203340","0.0-6.0-3.1","34","","","","","clear_screen","null","null","","","catch","l","sh","sw","231","260","193","181","172","160","spektor","null","null","null","null","null","null","null","null","null","null","null","","180","200","260","200","36000","52000","[1,3]"
"","canvas-keyboard-response","16","204750","0.0-6.0-4.1","34","","","","","make choice","1398","1","","","catch","l","sh","sw","231","260","193","181","172","160","spektor","null","null","null","null","null","null","null","null","null","null","null","","180","200","260","200","36000","52000","[1,3]"
"","canvas-keyboard-response","17","204907","0.0-6.0-5.1","34","","","","","clear_screen","null","null","","","catch","l","sh","sw","231","260","193","181","172","160","spektor","null","null","null","null","null","null","null","null","null","null","null","","180","200","260","200","36000","52000","[1,3]"
"","canvas-keyboard-response","18","205109","0.0-6.0-0.2","34","","","","","pre trial waiting period","null","null","","","critical","t","d","c","164","240","154.6796","220.0396","240","164","spektor","0.14","h","164","240","240","164","154.6796","220.0396","39360","39360","34035.6388","tc","null","null","null","null","null","null","[1,3]"
"","canvas-keyboard-response","19","205273","0.0-6.0-1.2","34","","","","","clear_screen","null","null","","","critical","t","d","c","164","240","154.6796","220.0396","240","164","spektor","0.14","h","164","240","240","164","154.6796","220.0396","39360","39360","34035.6388","tc","null","null","null","null","null","null","[1,3]"
"","canvas-keyboard-response","20","206613","0.0-6.0-2.2","34","","","","","rectangles","null","null","","","critical","t","d","c","164","240","154.6796","220.0396","240","164","spektor","0.14","h","164","240","240","164","154.6796","220.0396","39360","39360","34035.6388","tc","null","null","null","null","null","null","[1,3]"
"","canvas-keyboard-response","21","206772","0.0-6.0-3.2","34","","","","","clear_screen","null","null","","","critical","t","d","c","164","240","154.6796","220.0396","240","164","spektor","0.14","h","164","240","240","164","154.6796","220.0396","39360","39360","34035.6388","tc","null","null","null","null","null","null","[1,3]"
"","canvas-keyboard-response","22","208438","0.0-6.0-4.2","34","","","","","make choice","1657","3","","","critical","t","d","c","164","240","154.6796","220.0396","240","164","spektor","0.14","h","164","240","240","164","154.6796","220.0396","39360","39360","34035.6388","tc","null","null","null","null","null","null","[1,3]"
"","canvas-keyboard-response","23","208596","0.0-6.0-5.2","34","","","","","clear_screen","null","null","","","critical","t","d","c","164","240","154.6796","220.0396","240","164","spektor","0.14","h","164","240","240","164","154.6796","220.0396","39360","39360","34035.6388","tc","null","null","null","null","null","null","[1,3]"
"","canvas-keyboard-response","24","208799","0.0-6.0-0.3","34","","","","","pre trial waiting period","null","null","","","critical","c","t","d","240","164","164","240","162.6685","237.1485","spektor","0.02","h","164","240","240","164","162.6685","237.1485","39360","39360","38576.5967","tc","null","null","null","null","null","null","[2,1]"
"","canvas-keyboard-response","25","208962","0.0-6.0-1.3","34","","","","","clear_screen","null","null","","","critical","c","t","d","240","164","164","240","162.6685","237.1485","spektor","0.02","h","164","240","240","164","162.6685","237.1485","39360","39360","38576.5967","tc","null","null","null","null","null","null","[2,1]"
"","canvas-keyboard-response","26","210298","0.0-6.0-2.3","34","","","","","rectangles","null","null","","","critical","c","t","d","240","164","164","240","162.6685","237.1485","spektor","0.02","h","164","240","240","164","162.6685","237.1485","39360","39360","38576.5967","tc","null","null","null","null","null","null","[2,1]"
"","canvas-keyboard-response","27","210458","0.0-6.0-3.3","34","","","","","clear_screen","null","null","","","critical","c","t","d","240","164","164","240","162.6685","237.1485","spektor","0.02","h","164","240","240","164","162.6685","237.1485","39360","39360","38576.5967","tc","null","null","null","null","null","null","[2,1]"
"","canvas-keyboard-response","28","212341","0.0-6.0-4.3","34","","","","","make choice","1870","1","","","critical","c","t","d","240","164","164","240","162.6685","237.1485","spektor","0.02","h","164","240","240","164","162.6685","237.1485","39360","39360","38576.5967","tc","null","null","null","null","null","null","[2,1]"
"","canvas-keyboard-response","29","212501","0.0-6.0-5.3","34","","","","","clear_screen","null","null","","","critical","c","t","d","240","164","164","240","162.6685","237.1485","spektor","0.02","h","164","240","240","164","162.6685","237.1485","39360","39360","38576.5967","tc","null","null","null","null","null","null","[2,1]"
"","canvas-keyboard-response","30","212704","0.0-6.0-0.4","34","","","","","pre trial waiting period","null","null","","","critical","t","c","d","240","164","164","240","227.1683","158.0083","trueblood","0.09","w","240","164","164","240","227.1683","158.0083","39360","39360","35894.4834","td","null","null","null","null","null","null","[1,3]"
"","canvas-keyboard-response","31","212865","0.0-6.0-1.4","34","","","","","clear_screen","null","null","","","critical","t","c","d","240","164","164","240","227.1683","158.0083","trueblood","0.09","w","240","164","164","240","227.1683","158.0083","39360","39360","35894.4834","td","null","null","null","null","null","null","[1,3]"
"","canvas-keyboard-response","32","214202","0.0-6.0-2.4","34","","","","","rectangles","null","null","","","critical","t","c","d","240","164","164","240","227.1683","158.0083","trueblood","0.09","w","240","164","164","240","227.1683","158.0083","39360","39360","35894.4834","td","null","null","null","null","null","null","[1,3]"
"","canvas-keyboard-response","33","214356","0.0-6.0-3.4","34","","","","","clear_screen","null","null","","","critical","t","c","d","240","164","164","240","227.1683","158.0083","trueblood","0.09","w","240","164","164","240","227.1683","158.0083","39360","39360","35894.4834","td","null","null","null","null","null","null","[1,3]"
"","canvas-keyboard-response","34","216309","0.0-6.0-4.4","34","","","","","make choice","1944","3","","","critical","t","c","d","240","164","164","240","227.1683","158.0083","trueblood","0.09","w","240","164","164","240","227.1683","158.0083","39360","39360","35894.4834","td","null","null","null","null","null","null","[1,3]"
"","canvas-keyboard-response","35","216470","0.0-6.0-5.4","34","","","","","clear_screen","null","null","","","critical","t","c","d","240","164","164","240","227.1683","158.0083","trueblood","0.09","w","240","164","164","240","227.1683","158.0083","39360","39360","35894.4834","td","null","null","null","null","null","null","[1,3]"
"","canvas-keyboard-response","36","216671","0.0-6.0-0.5","34","","","","","pre trial waiting period","null","null","","","critical","d","t","c","164","240","164","240","240","164","trueblood","0","h","164","240","240","164","164","240","39360","39360","39360","td","null","null","null","null","null","null","[2,1]"
"","canvas-keyboard-response","37","216836","0.0-6.0-1.5","34","","","","","clear_screen","null","null","","","critical","d","t","c","164","240","164","240","240","164","trueblood","0","h","164","240","240","164","164","240","39360","39360","39360","td","null","null","null","null","null","null","[2,1]"
"","canvas-keyboard-response","38","218175","0.0-6.0-2.5","34","","","","","rectangles","null","null","","","critical","d","t","c","164","240","164","240","240","164","trueblood","0","h","164","240","240","164","164","240","39360","39360","39360","td","null","null","null","null","null","null","[2,1]"
"","canvas-keyboard-response","39","218335","0.0-6.0-3.5","34","","","","","clear_screen","null","null","","","critical","d","t","c","164","240","164","240","240","164","trueblood","0","h","164","240","240","164","164","240","39360","39360","39360","td","null","null","null","null","null","null","[2,1]"
"","canvas-keyboard-response","40","220086","0.0-6.0-4.5","34","","","","","make choice","1741","2","","","critical","d","t","c","164","240","164","240","240","164","trueblood","0","h","164","240","240","164","164","240","39360","39360","39360","td","null","null","null","null","null","null","[2,1]"
"","canvas-keyboard-response","41","220246","0.0-6.0-5.5","34","","","","","clear_screen","null","null","","","critical","d","t","c","164","240","164","240","240","164","trueblood","0","h","164","240","240","164","164","240","39360","39360","39360","td","null","null","null","null","null","null","[2,1]"
"","canvas-keyboard-response","42","220447","0.0-6.0-0.6","34","","","","","pre trial waiting period","null","null","","","critical","d","c","t","220.0396","154.6796","164","240","240","164","trueblood","0.14","w","240","164","164","240","220.0396","154.6796","39360","39360","34035.6388","dc","null","null","null","null","null","null","[1,2]"
"","canvas-keyboard-response","43","220606","0.0-6.0-1.6","34","","","","","clear_screen","null","null","","","critical","d","c","t","220.0396","154.6796","164","240","240","164","trueblood","0.14","w","240","164","164","240","220.0396","154.6796","39360","39360","34035.6388","dc","null","null","null","null","null","null","[1,2]"
"","canvas-keyboard-response","44","221945","0.0-6.0-2.6","34","","","","","rectangles","null","null","","","critical","d","c","t","220.0396","154.6796","164","240","240","164","trueblood","0.14","w","240","164","164","240","220.0396","154.6796","39360","39360","34035.6388","dc","null","null","null","null","null","null","[1,2]"
"","canvas-keyboard-response","45","222107","0.0-6.0-3.6","34","","","","","clear_screen","null","null","","","critical","d","c","t","220.0396","154.6796","164","240","240","164","trueblood","0.14","w","240","164","164","240","220.0396","154.6796","39360","39360","34035.6388","dc","null","null","null","null","null","null","[1,2]"
"","canvas-keyboard-response","46","224283","0.0-6.0-4.6","34","","","","","make choice","2167","2","","","critical","d","c","t","220.0396","154.6796","164","240","240","164","trueblood","0.14","w","240","164","164","240","220.0396","154.6796","39360","39360","34035.6388","dc","null","null","null","null","null","null","[1,2]"
"","canvas-keyboard-response","47","224439","0.0-6.0-5.6","34","","","","","clear_screen","null","null","","","critical","d","c","t","220.0396","154.6796","164","240","240","164","trueblood","0.14","w","240","164","164","240","220.0396","154.6796","39360","39360","34035.6388","dc","null","null","null","null","null","null","[1,2]"
"","canvas-keyboard-response","48","224640","0.0-6.0-0.7","34","","","","","pre trial waiting period","null","null","","","catch","sh","l","sw","164","150","172","225","218","186","trueblood","null","null","null","null","null","null","null","null","null","null","null","","180","200","260","200","36000","52000","[1,2]"
"","canvas-keyboard-response","49","224802","0.0-6.0-1.7","34","","","","","clear_screen","null","null","","","catch","sh","l","sw","164","150","172","225","218","186","trueblood","null","null","null","null","null","null","null","null","null","null","null","","180","200","260","200","36000","52000","[1,2]"
"","canvas-keyboard-response","50","226137","0.0-6.0-2.7","34","","","","","rectangles","null","null","","","catch","sh","l","sw","164","150","172","225","218","186","trueblood","null","null","null","null","null","null","null","null","null","null","null","","180","200","260","200","36000","52000","[1,2]"
"","canvas-keyboard-response","51","226295","0.0-6.0-3.7","34","","","","","clear_screen","null","null","","","catch","sh","l","sw","164","150","172","225","218","186","trueblood","null","null","null","null","null","null","null","null","null","null","null","","180","200","260","200","36000","52000","[1,2]"
"","canvas-keyboard-response","52","227901","0.0-6.0-4.7","34","","","","","make choice","1597","2","","","catch","sh","l","sw","164","150","172","225","218","186","trueblood","null","null","null","null","null","null","null","null","null","null","null","","180","200","260","200","36000","52000","[1,2]"
"","canvas-keyboard-response","53","228059","0.0-6.0-5.7","34","","","","","clear_screen","null","null","","","catch","sh","l","sw","164","150","172","225","218","186","trueblood","null","null","null","null","null","null","null","null","null","null","null","","180","200","260","200","36000","52000","[1,2]"
"","canvas-keyboard-response","54","228260","0.0-6.0-0.8","34","","","","","pre trial waiting period","null","null","","","critical","c","t","d","164","240","240","164","237.1485","162.6685","trueblood","0.02","w","240","164","164","240","237.1485","162.6685","39360","39360","38576.5967","tc","null","null","null","null","null","null","[2,1]"
"","canvas-keyboard-response","55","228421","0.0-6.0-1.8","34","","","","","clear_screen","null","null","","","critical","c","t","d","164","240","240","164","237.1485","162.6685","trueblood","0.02","w","240","164","164","240","237.1485","162.6685","39360","39360","38576.5967","tc","null","null","null","null","null","null","[2,1]"
"","canvas-keyboard-response","56","229755","0.0-6.0-2.8","34","","","","","rectangles","null","null","","","critical","c","t","d","164","240","240","164","237.1485","162.6685","trueblood","0.02","w","240","164","164","240","237.1485","162.6685","39360","39360","38576.5967","tc","null","null","null","null","null","null","[2,1]"
"","canvas-keyboard-response","57","229920","0.0-6.0-3.8","34","","","","","clear_screen","null","null","","","critical","c","t","d","164","240","240","164","237.1485","162.6685","trueblood","0.02","w","240","164","164","240","237.1485","162.6685","39360","39360","38576.5967","tc","null","null","null","null","null","null","[2,1]"
"","canvas-keyboard-response","58","231662","0.0-6.0-4.8","34","","","","","make choice","1734","1","","","critical","c","t","d","164","240","240","164","237.1485","162.6685","trueblood","0.02","w","240","164","164","240","237.1485","162.6685","39360","39360","38576.5967","tc","null","null","null","null","null","null","[2,1]"
"","canvas-keyboard-response","59","231820","0.0-6.0-5.8","34","","","","","clear_screen","null","null","","","critical","c","t","d","164","240","240","164","237.1485","162.6685","trueblood","0.02","w","240","164","164","240","237.1485","162.6685","39360","39360","38576.5967","tc","null","null","null","null","null","null","[2,1]"
"","canvas-keyboard-response","60","232022","0.0-6.0-0.9","34","","","","","pre trial waiting period","null","null","","","critical","d","c","t","220.0396","154.6796","164","240","240","164","spektor","0.14","w","240","164","164","240","220.0396","154.6796","39360","39360","34035.6388","td","null","null","null","null","null","null","[3,1]"
"","canvas-keyboard-response","61","232185","0.0-6.0-1.9","34","","","","","clear_screen","null","null","","","critical","d","c","t","220.0396","154.6796","164","240","240","164","spektor","0.14","w","240","164","164","240","220.0396","154.6796","39360","39360","34035.6388","td","null","null","null","null","null","null","[3,1]"
"","canvas-keyboard-response","62","233524","0.0-6.0-2.9","34","","","","","rectangles","null","null","","","critical","d","c","t","220.0396","154.6796","164","240","240","164","spektor","0.14","w","240","164","164","240","220.0396","154.6796","39360","39360","34035.6388","td","null","null","null","null","null","null","[3,1]"
"","canvas-keyboard-response","63","233685","0.0-6.0-3.9","34","","","","","clear_screen","null","null","","","critical","d","c","t","220.0396","154.6796","164","240","240","164","spektor","0.14","w","240","164","164","240","220.0396","154.6796","39360","39360","34035.6388","td","null","null","null","null","null","null","[3,1]"
"","canvas-keyboard-response","64","234613","0.0-6.0-4.9","34","","","","","make choice","915","3","","","critical","d","c","t","220.0396","154.6796","164","240","240","164","spektor","0.14","w","240","164","164","240","220.0396","154.6796","39360","39360","34035.6388","td","null","null","null","null","null","null","[3,1]"
"","canvas-keyboard-response","65","234773","0.0-6.0-5.9","34","","","","","clear_screen","null","null","","","critical","d","c","t","220.0396","154.6796","164","240","240","164","spektor","0.14","w","240","164","164","240","220.0396","154.6796","39360","39360","34035.6388","td","null","null","null","null","null","null","[3,1]"
"","canvas-keyboard-response","66","234974","0.0-6.0-0.10","34","","","","","pre trial waiting period","null","null","","","critical","d","t","c","164","240","164","240","240","164","spektor","0","h","164","240","240","164","164","240","39360","39360","39360","tc","null","null","null","null","null","null","[2,3]"
"","canvas-keyboard-response","67","235137","0.0-6.0-1.10","34","","","","","clear_screen","null","null","","","critical","d","t","c","164","240","164","240","240","164","spektor","0","h","164","240","240","164","164","240","39360","39360","39360","tc","null","null","null","null","null","null","[2,3]"
"","canvas-keyboard-response","68","236475","0.0-6.0-2.10","34","","","","","rectangles","null","null","","","critical","d","t","c","164","240","164","240","240","164","spektor","0","h","164","240","240","164","164","240","39360","39360","39360","tc","null","null","null","null","null","null","[2,3]"
"","canvas-keyboard-response","69","236635","0.0-6.0-3.10","34","","","","","clear_screen","null","null","","","critical","d","t","c","164","240","164","240","240","164","spektor","0","h","164","240","240","164","164","240","39360","39360","39360","tc","null","null","null","null","null","null","[2,3]"
"","canvas-keyboard-response","70","238141","0.0-6.0-4.10","34","","","","","make choice","1493","2","","","critical","d","t","c","164","240","164","240","240","164","spektor","0","h","164","240","240","164","164","240","39360","39360","39360","tc","null","null","null","null","null","null","[2,3]"
"","canvas-keyboard-response","71","238300","0.0-6.0-5.10","34","","","","","clear_screen","null","null","","","critical","d","t","c","164","240","164","240","240","164","spektor","0","h","164","240","240","164","164","240","39360","39360","39360","tc","null","null","null","null","null","null","[2,3]"
"","canvas-keyboard-response","72","238501","0.0-6.0-0.11","34","","","","","pre trial waiting period","null","null","","","catch","sw","sh","l","180","200","174","146","254","205","spektor","null","null","null","null","null","null","null","null","null","null","null","","180","200","260","200","36000","52000","[1,3]"
"","canvas-keyboard-response","73","238663","0.0-6.0-1.11","34","","","","","clear_screen","null","null","","","catch","sw","sh","l","180","200","174","146","254","205","spektor","null","null","null","null","null","null","null","null","null","null","null","","180","200","260","200","36000","52000","[1,3]"
"","canvas-keyboard-response","74","240004","0.0-6.0-2.11","34","","","","","rectangles","null","null","","","catch","sw","sh","l","180","200","174","146","254","205","spektor","null","null","null","null","null","null","null","null","null","null","null","","180","200","260","200","36000","52000","[1,3]"
"","canvas-keyboard-response","75","240168","0.0-6.0-3.11","34","","","","","clear_screen","null","null","","","catch","sw","sh","l","180","200","174","146","254","205","spektor","null","null","null","null","null","null","null","null","null","null","null","","180","200","260","200","36000","52000","[1,3]"
"","canvas-keyboard-response","76","240942","0.0-6.0-4.11","34","","","","","make choice","766","3","","","catch","sw","sh","l","180","200","174","146","254","205","spektor","null","null","null","null","null","null","null","null","null","null","null","","180","200","260","200","36000","52000","[1,3]"
"","canvas-keyboard-response","77","241100","0.0-6.0-5.11","34","","","","","clear_screen","null","null","","","catch","sw","sh","l","180","200","174","146","254","205","spektor","null","null","null","null","null","null","null","null","null","null","null","","180","200","260","200","36000","52000","[1,3]"
"","canvas-keyboard-response","78","241302","0.0-6.0-0.12","34","","","","","pre trial waiting period","null","null","","","critical","t","c","d","240","164","164","240","227.1683","158.0083","spektor","0.09","w","240","164","164","240","227.1683","158.0083","39360","39360","35894.4834","dc","null","null","null","null","null","null","[3,2]"
"","canvas-keyboard-response","79","241466","0.0-6.0-1.12","34","","","","","clear_screen","null","null","","","critical","t","c","d","240","164","164","240","227.1683","158.0083","spektor","0.09","w","240","164","164","240","227.1683","158.0083","39360","39360","35894.4834","dc","null","null","null","null","null","null","[3,2]"
"","canvas-keyboard-response","80","242805","0.0-6.0-2.12","34","","","","","rectangles","null","null","","","critical","t","c","d","240","164","164","240","227.1683","158.0083","spektor","0.09","w","240","164","164","240","227.1683","158.0083","39360","39360","35894.4834","dc","null","null","null","null","null","null","[3,2]"
"","canvas-keyboard-response","81","242966","0.0-6.0-3.12","34","","","","","clear_screen","null","null","","","critical","t","c","d","240","164","164","240","227.1683","158.0083","spektor","0.09","w","240","164","164","240","227.1683","158.0083","39360","39360","35894.4834","dc","null","null","null","null","null","null","[3,2]"
"","canvas-keyboard-response","82","244189","0.0-6.0-4.12","34","","","","","make choice","1210","2","","","critical","t","c","d","240","164","164","240","227.1683","158.0083","spektor","0.09","w","240","164","164","240","227.1683","158.0083","39360","39360","35894.4834","dc","null","null","null","null","null","null","[3,2]"
"","canvas-keyboard-response","83","244349","0.0-6.0-5.12","34","","","","","clear_screen","null","null","","","critical","t","c","d","240","164","164","240","227.1683","158.0083","spektor","0.09","w","240","164","164","240","227.1683","158.0083","39360","39360","35894.4834","dc","null","null","null","null","null","null","[3,2]"
"","canvas-keyboard-response","84","244551","0.0-6.0-0.13","34","","","","","pre trial waiting period","null","null","","","critical","t","d","c","164","240","162.6685","237.1485","240","164","trueblood","0.02","h","164","240","240","164","162.6685","237.1485","39360","39360","38576.5967","dc","null","null","null","null","null","null","[2,3]"
"","canvas-keyboard-response","85","244711","0.0-6.0-1.13","34","","","","","clear_screen","null","null","","","critical","t","d","c","164","240","162.6685","237.1485","240","164","trueblood","0.02","h","164","240","240","164","162.6685","237.1485","39360","39360","38576.5967","dc","null","null","null","null","null","null","[2,3]"
"","canvas-keyboard-response","86","246049","0.0-6.0-2.13","34","","","","","rectangles","null","null","","","critical","t","d","c","164","240","162.6685","237.1485","240","164","trueblood","0.02","h","164","240","240","164","162.6685","237.1485","39360","39360","38576.5967","dc","null","null","null","null","null","null","[2,3]"
"","canvas-keyboard-response","87","246212","0.0-6.0-3.13","34","","","","","clear_screen","null","null","","","critical","t","d","c","164","240","162.6685","237.1485","240","164","trueblood","0.02","h","164","240","240","164","162.6685","237.1485","39360","39360","38576.5967","dc","null","null","null","null","null","null","[2,3]"
"","canvas-keyboard-response","88","247214","0.0-6.0-4.13","34","","","","","make choice","993","3","","","critical","t","d","c","164","240","162.6685","237.1485","240","164","trueblood","0.02","h","164","240","240","164","162.6685","237.1485","39360","39360","38576.5967","dc","null","null","null","null","null","null","[2,3]"
"","canvas-keyboard-response","89","247372","0.0-6.0-5.13","34","","","","","clear_screen","null","null","","","critical","t","d","c","164","240","162.6685","237.1485","240","164","trueblood","0.02","h","164","240","240","164","162.6685","237.1485","39360","39360","38576.5967","dc","null","null","null","null","null","null","[2,3]"
"","canvas-keyboard-response","90","247573","0.0-6.0-0.14","34","","","","","pre trial waiting period","null","null","","","catch","sh","l","sw","214","178","186","298","197","234","trueblood","null","null","null","null","null","null","null","null","null","null","null","","180","200","260","200","36000","52000","[1,2]"
"","canvas-keyboard-response","91","247737","0.0-6.0-1.14","34","","","","","clear_screen","null","null","","","catch","sh","l","sw","214","178","186","298","197","234","trueblood","null","null","null","null","null","null","null","null","null","null","null","","180","200","260","200","36000","52000","[1,2]"
"","canvas-keyboard-response","92","249074","0.0-6.0-2.14","34","","","","","rectangles","null","null","","","catch","sh","l","sw","214","178","186","298","197","234","trueblood","null","null","null","null","null","null","null","null","null","null","null","","180","200","260","200","36000","52000","[1,2]"
"","canvas-keyboard-response","93","249236","0.0-6.0-3.14","34","","","","","clear_screen","null","null","","","catch","sh","l","sw","214","178","186","298","197","234","trueblood","null","null","null","null","null","null","null","null","null","null","null","","180","200","260","200","36000","52000","[1,2]"
"","canvas-keyboard-response","94","250829","0.0-6.0-4.14","34","","","","","make choice","1580","2","","","catch","sh","l","sw","214","178","186","298","197","234","trueblood","null","null","null","null","null","null","null","null","null","null","null","","180","200","260","200","36000","52000","[1,2]"
"","canvas-keyboard-response","95","250990","0.0-6.0-5.14","34","","","","","clear_screen","null","null","","","catch","sh","l","sw","214","178","186","298","197","234","trueblood","null","null","null","null","null","null","null","null","null","null","null","","180","200","260","200","36000","52000","[1,2]"
"","canvas-keyboard-response","96","251191","0.0-6.0-0.15","34","","","","","pre trial waiting period","null","null","","","catch","l","sh","sw","297","168","161","207","213","173","spektor","null","null","null","null","null","null","null","null","null","null","null","","180","200","260","200","36000","52000","[1,3]"
"","canvas-keyboard-response","97","251353","0.0-6.0-1.15","34","","","","","clear_screen","null","null","","","catch","l","sh","sw","297","168","161","207","213","173","spektor","null","null","null","null","null","null","null","null","null","null","null","","180","200","260","200","36000","52000","[1,3]"
"","canvas-keyboard-response","98","252687","0.0-6.0-2.15","34","","","","","rectangles","null","null","","","catch","l","sh","sw","297","168","161","207","213","173","spektor","null","null","null","null","null","null","null","null","null","null","null","","180","200","260","200","36000","52000","[1,3]"
"","canvas-keyboard-response","99","252847","0.0-6.0-3.15","34","","","","","clear_screen","null","null","","","catch","l","sh","sw","297","168","161","207","213","173","spektor","null","null","null","null","null","null","null","null","null","null","null","","180","200","260","200","36000","52000","[1,3]"
"","canvas-keyboard-response","100","253973","0.0-6.0-4.15","34","","","","","make choice","1117","1","","","catch","l","sh","sw","297","168","161","207","213","173","spektor","null","null","null","null","null","null","null","null","null","null","null","","180","200","260","200","36000","52000","[1,3]"
"","canvas-keyboard-response","101","254132","0.0-6.0-5.15","34","","","","","clear_screen","null","null","","","catch","l","sh","sw","297","168","161","207","213","173","spektor","null","null","null","null","null","null","null","null","null","null","null","","180","200","260","200","36000","52000","[1,3]"
"","canvas-keyboard-response","102","254335","0.0-6.0-0.16","34","","","","","pre trial waiting period","null","null","","","catch","sh","l","sw","187","168","291","234","198","170","trueblood","null","null","null","null","null","null","null","null","null","null","null","","180","200","260","200","36000","52000","[1,2]"
"","canvas-keyboard-response","103","254494","0.0-6.0-1.16","34","","","","","clear_screen","null","null","","","catch","sh","l","sw","187","168","291","234","198","170","trueblood","null","null","null","null","null","null","null","null","null","null","null","","180","200","260","200","36000","52000","[1,2]"
"","canvas-keyboard-response","104","255835","0.0-6.0-2.16","34","","","","","rectangles","null","null","","","catch","sh","l","sw","187","168","291","234","198","170","trueblood","null","null","null","null","null","null","null","null","null","null","null","","180","200","260","200","36000","52000","[1,2]"
"","canvas-keyboard-response","105","255994","0.0-6.0-3.16","34","","","","","clear_screen","null","null","","","catch","sh","l","sw","187","168","291","234","198","170","trueblood","null","null","null","null","null","null","null","null","null","null","null","","180","200","260","200","36000","52000","[1,2]"
"","canvas-keyboard-response","106","256853","0.0-6.0-4.16","34","","","","","make choice","847","2","","","catch","sh","l","sw","187","168","291","234","198","170","trueblood","null","null","null","null","null","null","null","null","null","null","null","","180","200","260","200","36000","52000","[1,2]"
"","canvas-keyboard-response","107","257013","0.0-6.0-5.16","34","","","","","clear_screen","null","null","","","catch","sh","l","sw","187","168","291","234","198","170","trueblood","null","null","null","null","null","null","null","null","null","null","null","","180","200","260","200","36000","52000","[1,2]"
"","canvas-keyboard-response","108","257214","0.0-6.0-0.17","34","","","","","pre trial waiting period","null","null","","","critical","t","c","d","240","164","164","240","232.8713","160.6713","spektor","0.05","w","240","164","164","240","232.8713","160.6713","39360","39360","37415.7294","td","null","null","null","null","null","null","[1,3]"
"","canvas-keyboard-response","109","257378","0.0-6.0-1.17","34","","","","","clear_screen","null","null","","","critical","t","c","d","240","164","164","240","232.8713","160.6713","spektor","0.05","w","240","164","164","240","232.8713","160.6713","39360","39360","37415.7294","td","null","null","null","null","null","null","[1,3]"
"","canvas-keyboard-response","110","258718","0.0-6.0-2.17","34","","","","","rectangles","null","null","","","critical","t","c","d","240","164","164","240","232.8713","160.6713","spektor","0.05","w","240","164","164","240","232.8713","160.6713","39360","39360","37415.7294","td","null","null","null","null","null","null","[1,3]"
"","canvas-keyboard-response","111","258878","0.0-6.0-3.17","34","","","","","clear_screen","null","null","","","critical","t","c","d","240","164","164","240","232.8713","160.6713","spektor","0.05","w","240","164","164","240","232.8713","160.6713","39360","39360","37415.7294","td","null","null","null","null","null","null","[1,3]"
"","canvas-keyboard-response","112","260460","0.0-6.0-4.17","34","","","","","make choice","1573","3","","","critical","t","c","d","240","164","164","240","232.8713","160.6713","spektor","0.05","w","240","164","164","240","232.8713","160.6713","39360","39360","37415.7294","td","null","null","null","null","null","null","[1,3]"
"","canvas-keyboard-response","113","260619","0.0-6.0-5.17","34","","","","","clear_screen","null","null","","","critical","t","c","d","240","164","164","240","232.8713","160.6713","spektor","0.05","w","240","164","164","240","232.8713","160.6713","39360","39360","37415.7294","td","null","null","null","null","null","null","[1,3]"
"","canvas-keyboard-response","114","260820","0.0-6.0-0.18","34","","","","","pre trial waiting period","null","null","","","catch","sh","l","sw","233","203","282","190","141","234","trueblood","null","null","null","null","null","null","null","null","null","null","null","","180","200","260","200","36000","52000","[2,3]"
"","canvas-keyboard-response","115","260984","0.0-6.0-1.18","34","","","","","clear_screen","null","null","","","catch","sh","l","sw","233","203","282","190","141","234","trueblood","null","null","null","null","null","null","null","null","null","null","null","","180","200","260","200","36000","52000","[2,3]"
"","canvas-keyboard-response","116","262321","0.0-6.0-2.18","34","","","","","rectangles","null","null","","","catch","sh","l","sw","233","203","282","190","141","234","trueblood","null","null","null","null","null","null","null","null","null","null","null","","180","200","260","200","36000","52000","[2,3]"
"","canvas-keyboard-response","117","262483","0.0-6.0-3.18","34","","","","","clear_screen","null","null","","","catch","sh","l","sw","233","203","282","190","141","234","trueblood","null","null","null","null","null","null","null","null","null","null","null","","180","200","260","200","36000","52000","[2,3]"
"","canvas-keyboard-response","118","263550","0.0-6.0-4.18","34","","","","","make choice","1059","2","","","catch","sh","l","sw","233","203","282","190","141","234","trueblood","null","null","null","null","null","null","null","null","null","null","null","","180","200","260","200","36000","52000","[2,3]"
"","canvas-keyboard-response","119","263710","0.0-6.0-5.18","34","","","","","clear_screen","null","null","","","catch","sh","l","sw","233","203","282","190","141","234","trueblood","null","null","null","null","null","null","null","null","null","null","null","","180","200","260","200","36000","52000","[2,3]"
"","canvas-keyboard-response","120","263911","0.0-6.0-0.19","34","","","","","pre trial waiting period","null","null","","","catch","l","sw","sh","227","170","219","184","201","170","trueblood","null","null","null","null","null","null","null","null","null","null","null","","180","200","260","200","36000","52000","[1,3]"
"","canvas-keyboard-response","121","264072","0.0-6.0-1.19","34","","","","","clear_screen","null","null","","","catch","l","sw","sh","227","170","219","184","201","170","trueblood","null","null","null","null","null","null","null","null","null","null","null","","180","200","260","200","36000","52000","[1,3]"
"","canvas-keyboard-response","122","265411","0.0-6.0-2.19","34","","","","","rectangles","null","null","","","catch","l","sw","sh","227","170","219","184","201","170","trueblood","null","null","null","null","null","null","null","null","null","null","null","","180","200","260","200","36000","52000","[1,3]"
"","canvas-keyboard-response","123","265573","0.0-6.0-3.19","34","","","","","clear_screen","null","null","","","catch","l","sw","sh","227","170","219","184","201","170","trueblood","null","null","null","null","null","null","null","null","null","null","null","","180","200","260","200","36000","52000","[1,3]"
"","canvas-keyboard-response","124","266829","0.0-6.0-4.19","34","","","","","make choice","1247","3","","","catch","l","sw","sh","227","170","219","184","201","170","trueblood","null","null","null","null","null","null","null","null","null","null","null","","180","200","260","200","36000","52000","[1,3]"
"","canvas-keyboard-response","125","266989","0.0-6.0-5.19","34","","","","","clear_screen","null","null","","","catch","l","sw","sh","227","170","219","184","201","170","trueblood","null","null","null","null","null","null","null","null","null","null","null","","180","200","260","200","36000","52000","[1,3]"
"","canvas-keyboard-response","126","267190","0.0-6.0-0.20","34","","","","","pre trial waiting period","null","null","","","critical","d","c","t","220.0396","154.6796","164","240","240","164","trueblood","0.14","w","240","164","164","240","220.0396","154.6796","39360","39360","34035.6388","td","null","null","null","null","null","null","[3,1]"
"","canvas-keyboard-response","127","267349","0.0-6.0-1.20","34","","","","","clear_screen","null","null","","","critical","d","c","t","220.0396","154.6796","164","240","240","164","trueblood","0.14","w","240","164","164","240","220.0396","154.6796","39360","39360","34035.6388","td","null","null","null","null","null","null","[3,1]"
"","canvas-keyboard-response","128","268687","0.0-6.0-2.20","34","","","","","rectangles","null","null","","","critical","d","c","t","220.0396","154.6796","164","240","240","164","trueblood","0.14","w","240","164","164","240","220.0396","154.6796","39360","39360","34035.6388","td","null","null","null","null","null","null","[3,1]"
"","canvas-keyboard-response","129","268845","0.0-6.0-3.20","34","","","","","clear_screen","null","null","","","critical","d","c","t","220.0396","154.6796","164","240","240","164","trueblood","0.14","w","240","164","164","240","220.0396","154.6796","39360","39360","34035.6388","td","null","null","null","null","null","null","[3,1]"
"","canvas-keyboard-response","130","270949","0.0-6.0-4.20","34","","","","","make choice","2096","3","","","critical","d","c","t","220.0396","154.6796","164","240","240","164","trueblood","0.14","w","240","164","164","240","220.0396","154.6796","39360","39360","34035.6388","td","null","null","null","null","null","null","[3,1]"
"","canvas-keyboard-response","131","271109","0.0-6.0-5.20","34","","","","","clear_screen","null","null","","","critical","d","c","t","220.0396","154.6796","164","240","240","164","trueblood","0.14","w","240","164","164","240","220.0396","154.6796","39360","39360","34035.6388","td","null","null","null","null","null","null","[3,1]"
"","canvas-keyboard-response","132","271310","0.0-6.0-0.21","34","","","","","pre trial waiting period","null","null","","","critical","t","c","d","240","164","164","240","232.8713","160.6713","trueblood","0.05","w","240","164","164","240","232.8713","160.6713","39360","39360","37415.7294","tc","null","null","null","null","null","null","[1,2]"
"","canvas-keyboard-response","133","271470","0.0-6.0-1.21","34","","","","","clear_screen","null","null","","","critical","t","c","d","240","164","164","240","232.8713","160.6713","trueblood","0.05","w","240","164","164","240","232.8713","160.6713","39360","39360","37415.7294","tc","null","null","null","null","null","null","[1,2]"
"","canvas-keyboard-response","134","272809","0.0-6.0-2.21","34","","","","","rectangles","null","null","","","critical","t","c","d","240","164","164","240","232.8713","160.6713","trueblood","0.05","w","240","164","164","240","232.8713","160.6713","39360","39360","37415.7294","tc","null","null","null","null","null","null","[1,2]"
"","canvas-keyboard-response","135","272970","0.0-6.0-3.21","34","","","","","clear_screen","null","null","","","critical","t","c","d","240","164","164","240","232.8713","160.6713","trueblood","0.05","w","240","164","164","240","232.8713","160.6713","39360","39360","37415.7294","tc","null","null","null","null","null","null","[1,2]"
"","canvas-keyboard-response","136","273686","0.0-6.0-4.21","34","","","","","make choice","706","2","","","critical","t","c","d","240","164","164","240","232.8713","160.6713","trueblood","0.05","w","240","164","164","240","232.8713","160.6713","39360","39360","37415.7294","tc","null","null","null","null","null","null","[1,2]"
"","canvas-keyboard-response","137","273846","0.0-6.0-5.21","34","","","","","clear_screen","null","null","","","critical","t","c","d","240","164","164","240","232.8713","160.6713","trueblood","0.05","w","240","164","164","240","232.8713","160.6713","39360","39360","37415.7294","tc","null","null","null","null","null","null","[1,2]"
"","canvas-keyboard-response","138","274049","0.0-6.0-0.22","34","","","","","pre trial waiting period","null","null","","","catch","l","sh","sw","245","185","185","151","153","237","trueblood","null","null","null","null","null","null","null","null","null","null","null","","180","200","260","200","36000","52000","[1,2]"
"","canvas-keyboard-response","139","274206","0.0-6.0-1.22","34","","","","","clear_screen","null","null","","","catch","l","sh","sw","245","185","185","151","153","237","trueblood","null","null","null","null","null","null","null","null","null","null","null","","180","200","260","200","36000","52000","[1,2]"
"","canvas-keyboard-response","140","275545","0.0-6.0-2.22","34","","","","","rectangles","null","null","","","catch","l","sh","sw","245","185","185","151","153","237","trueblood","null","null","null","null","null","null","null","null","null","null","null","","180","200","260","200","36000","52000","[1,2]"
"","canvas-keyboard-response","141","275706","0.0-6.0-3.22","34","","","","","clear_screen","null","null","","","catch","l","sh","sw","245","185","185","151","153","237","trueblood","null","null","null","null","null","null","null","null","null","null","null","","180","200","260","200","36000","52000","[1,2]"
"","canvas-keyboard-response","142","277013","0.0-6.0-4.22","34","","","","","make choice","1298","1","","","catch","l","sh","sw","245","185","185","151","153","237","trueblood","null","null","null","null","null","null","null","null","null","null","null","","180","200","260","200","36000","52000","[1,2]"
"","canvas-keyboard-response","143","277174","0.0-6.0-5.22","34","","","","","clear_screen","null","null","","","catch","l","sh","sw","245","185","185","151","153","237","trueblood","null","null","null","null","null","null","null","null","null","null","null","","180","200","260","200","36000","52000","[1,2]"
"","canvas-keyboard-response","144","277376","0.0-6.0-0.23","34","","","","","pre trial waiting period","null","null","","","critical","d","t","c","227.1683","158.0083","240","164","164","240","trueblood","0.09","w","240","164","164","240","227.1683","158.0083","39360","39360","35894.4834","tc","null","null","null","null","null","null","[2,3]"
"","canvas-keyboard-response","145","277540","0.0-6.0-1.23","34","","","","","clear_screen","null","null","","","critical","d","t","c","227.1683","158.0083","240","164","164","240","trueblood","0.09","w","240","164","164","240","227.1683","158.0083","39360","39360","35894.4834","tc","null","null","null","null","null","null","[2,3]"
"","canvas-keyboard-response","146","278871","0.0-6.0-2.23","34","","","","","rectangles","null","null","","","critical","d","t","c","227.1683","158.0083","240","164","164","240","trueblood","0.09","w","240","164","164","240","227.1683","158.0083","39360","39360","35894.4834","tc","null","null","null","null","null","null","[2,3]"
"","canvas-keyboard-response","147","279030","0.0-6.0-3.23","34","","","","","clear_screen","null","null","","","critical","d","t","c","227.1683","158.0083","240","164","164","240","trueblood","0.09","w","240","164","164","240","227.1683","158.0083","39360","39360","35894.4834","tc","null","null","null","null","null","null","[2,3]"
"","canvas-keyboard-response","148","280166","0.0-6.0-4.23","34","","","","","make choice","1122","2","","","critical","d","t","c","227.1683","158.0083","240","164","164","240","trueblood","0.09","w","240","164","164","240","227.1683","158.0083","39360","39360","35894.4834","tc","null","null","null","null","null","null","[2,3]"
"","canvas-keyboard-response","149","280326","0.0-6.0-5.23","34","","","","","clear_screen","null","null","","","critical","d","t","c","227.1683","158.0083","240","164","164","240","trueblood","0.09","w","240","164","164","240","227.1683","158.0083","39360","39360","35894.4834","tc","null","null","null","null","null","null","[2,3]"
"","canvas-keyboard-response","150","280527","0.0-6.0-0.24","34","","","","","pre trial waiting period","null","null","","","critical","c","t","d","164","240","240","164","232.8713","160.6713","spektor","0.05","w","240","164","164","240","232.8713","160.6713","39360","39360","37415.7294","tc","null","null","null","null","null","null","[2,1]"
"","canvas-keyboard-response","151","280684","0.0-6.0-1.24","34","","","","","clear_screen","null","null","","","critical","c","t","d","164","240","240","164","232.8713","160.6713","spektor","0.05","w","240","164","164","240","232.8713","160.6713","39360","39360","37415.7294","tc","null","null","null","null","null","null","[2,1]"
"","canvas-keyboard-response","152","282023","0.0-6.0-2.24","34","","","","","rectangles","null","null","","","critical","c","t","d","164","240","240","164","232.8713","160.6713","spektor","0.05","w","240","164","164","240","232.8713","160.6713","39360","39360","37415.7294","tc","null","null","null","null","null","null","[2,1]"
"","canvas-keyboard-response","153","282181","0.0-6.0-3.24","34","","","","","clear_screen","null","null","","","critical","c","t","d","164","240","240","164","232.8713","160.6713","spektor","0.05","w","240","164","164","240","232.8713","160.6713","39360","39360","37415.7294","tc","null","null","null","null","null","null","[2,1]"
"","canvas-keyboard-response","154","283742","0.0-6.0-4.24","34","","","","","make choice","1550","2","","","critical","c","t","d","164","240","240","164","232.8713","160.6713","spektor","0.05","w","240","164","164","240","232.8713","160.6713","39360","39360","37415.7294","tc","null","null","null","null","null","null","[2,1]"
"","canvas-keyboard-response","155","283902","0.0-6.0-5.24","34","","","","","clear_screen","null","null","","","critical","c","t","d","164","240","240","164","232.8713","160.6713","spektor","0.05","w","240","164","164","240","232.8713","160.6713","39360","39360","37415.7294","tc","null","null","null","null","null","null","[2,1]"
"","canvas-keyboard-response","156","284104","0.0-6.0-0.25","34","","","","","pre trial waiting period","null","null","","","critical","t","c","d","164","240","240","164","154.6796","220.0396","trueblood","0.14","h","164","240","240","164","154.6796","220.0396","39360","39360","34035.6388","dc","null","null","null","null","null","null","[3,2]"
"","canvas-keyboard-response","157","284264","0.0-6.0-1.25","34","","","","","clear_screen","null","null","","","critical","t","c","d","164","240","240","164","154.6796","220.0396","trueblood","0.14","h","164","240","240","164","154.6796","220.0396","39360","39360","34035.6388","dc","null","null","null","null","null","null","[3,2]"
"","canvas-keyboard-response","158","285605","0.0-6.0-2.25","34","","","","","rectangles","null","null","","","critical","t","c","d","164","240","240","164","154.6796","220.0396","trueblood","0.14","h","164","240","240","164","154.6796","220.0396","39360","39360","34035.6388","dc","null","null","null","null","null","null","[3,2]"
"","canvas-keyboard-response","159","285765","0.0-6.0-3.25","34","","","","","clear_screen","null","null","","","critical","t","c","d","164","240","240","164","154.6796","220.0396","trueblood","0.14","h","164","240","240","164","154.6796","220.0396","39360","39360","34035.6388","dc","null","null","null","null","null","null","[3,2]"
"","canvas-keyboard-response","160","287580","0.0-6.0-4.25","34","","","","","make choice","1805","3","","","critical","t","c","d","164","240","240","164","154.6796","220.0396","trueblood","0.14","h","164","240","240","164","154.6796","220.0396","39360","39360","34035.6388","dc","null","null","null","null","null","null","[3,2]"
"","canvas-keyboard-response","161","287737","0.0-6.0-5.25","34","","","","","clear_screen","null","null","","","critical","t","c","d","164","240","240","164","154.6796","220.0396","trueblood","0.14","h","164","240","240","164","154.6796","220.0396","39360","39360","34035.6388","dc","null","null","null","null","null","null","[3,2]"
"","canvas-keyboard-response","162","287938","0.0-6.0-0.26","34","","","","","pre trial waiting period","null","null","","","critical","d","t","c","154.6796","220.0396","164","240","240","164","spektor","0.14","h","164","240","240","164","154.6796","220.0396","39360","39360","34035.6388","dc","null","null","null","null","null","null","[1,3]"
"","canvas-keyboard-response","163","288098","0.0-6.0-1.26","34","","","","","clear_screen","null","null","","","critical","d","t","c","154.6796","220.0396","164","240","240","164","spektor","0.14","h","164","240","240","164","154.6796","220.0396","39360","39360","34035.6388","dc","null","null","null","null","null","null","[1,3]"
"","canvas-keyboard-response","164","289433","0.0-6.0-2.26","34","","","","","rectangles","null","null","","","critical","d","t","c","154.6796","220.0396","164","240","240","164","spektor","0.14","h","164","240","240","164","154.6796","220.0396","39360","39360","34035.6388","dc","null","null","null","null","null","null","[1,3]"
"","canvas-keyboard-response","165","289593","0.0-6.0-3.26","34","","","","","clear_screen","null","null","","","critical","d","t","c","154.6796","220.0396","164","240","240","164","spektor","0.14","h","164","240","240","164","154.6796","220.0396","39360","39360","34035.6388","dc","null","null","null","null","null","null","[1,3]"
"","canvas-keyboard-response","166","291885","0.0-6.0-4.26","34","","","","","make choice","2284","1","","","critical","d","t","c","154.6796","220.0396","164","240","240","164","spektor","0.14","h","164","240","240","164","154.6796","220.0396","39360","39360","34035.6388","dc","null","null","null","null","null","null","[1,3]"
"","canvas-keyboard-response","167","292046","0.0-6.0-5.26","34","","","","","clear_screen","null","null","","","critical","d","t","c","154.6796","220.0396","164","240","240","164","spektor","0.14","h","164","240","240","164","154.6796","220.0396","39360","39360","34035.6388","dc","null","null","null","null","null","null","[1,3]"
"","canvas-keyboard-response","168","292248","0.0-6.0-0.27","34","","","","","pre trial waiting period","null","null","","","catch","sw","sh","l","180","200","225","140","184","256","spektor","null","null","null","null","null","null","null","null","null","null","null","","180","200","260","200","36000","52000","[1,3]"
"","canvas-keyboard-response","169","292409","0.0-6.0-1.27","34","","","","","clear_screen","null","null","","","catch","sw","sh","l","180","200","225","140","184","256","spektor","null","null","null","null","null","null","null","null","null","null","null","","180","200","260","200","36000","52000","[1,3]"
"","canvas-keyboard-response","170","293748","0.0-6.0-2.27","34","","","","","rectangles","null","null","","","catch","sw","sh","l","180","200","225","140","184","256","spektor","null","null","null","null","null","null","null","null","null","null","null","","180","200","260","200","36000","52000","[1,3]"
"","canvas-keyboard-response","171","293909","0.0-6.0-3.27","34","","","","","clear_screen","null","null","","","catch","sw","sh","l","180","200","225","140","184","256","spektor","null","null","null","null","null","null","null","null","null","null","null","","180","200","260","200","36000","52000","[1,3]"
"","canvas-keyboard-response","172","294949","0.0-6.0-4.27","34","","","","","make choice","1031","3","","","catch","sw","sh","l","180","200","225","140","184","256","spektor","null","null","null","null","null","null","null","null","null","null","null","","180","200","260","200","36000","52000","[1,3]"
"","canvas-keyboard-response","173","295110","0.0-6.0-5.27","34","","","","","clear_screen","null","null","","","catch","sw","sh","l","180","200","225","140","184","256","spektor","null","null","null","null","null","null","null","null","null","null","null","","180","200","260","200","36000","52000","[1,3]"
"","canvas-keyboard-response","174","295312","0.0-6.0-0.28","34","","","","","pre trial waiting period","null","null","","","catch","sw","sh","l","180","200","236","141","286","193","spektor","null","null","null","null","null","null","null","null","null","null","null","","180","200","260","200","36000","52000","[2,3]"
"","canvas-keyboard-response","175","295471","0.0-6.0-1.28","34","","","","","clear_screen","null","null","","","catch","sw","sh","l","180","200","236","141","286","193","spektor","null","null","null","null","null","null","null","null","null","null","null","","180","200","260","200","36000","52000","[2,3]"
"","canvas-keyboard-response","176","296809","0.0-6.0-2.28","34","","","","","rectangles","null","null","","","catch","sw","sh","l","180","200","236","141","286","193","spektor","null","null","null","null","null","null","null","null","null","null","null","","180","200","260","200","36000","52000","[2,3]"
"","canvas-keyboard-response","177","296969","0.0-6.0-3.28","34","","","","","clear_screen","null","null","","","catch","sw","sh","l","180","200","236","141","286","193","spektor","null","null","null","null","null","null","null","null","null","null","null","","180","200","260","200","36000","52000","[2,3]"
"","canvas-keyboard-response","178","298374","0.0-6.0-4.28","34","","","","","make choice","1391","2","","","catch","sw","sh","l","180","200","236","141","286","193","spektor","null","null","null","null","null","null","null","null","null","null","null","","180","200","260","200","36000","52000","[2,3]"
"","canvas-keyboard-response","179","298531","0.0-6.0-5.28","34","","","","","clear_screen","null","null","","","catch","sw","sh","l","180","200","236","141","286","193","spektor","null","null","null","null","null","null","null","null","null","null","null","","180","200","260","200","36000","52000","[2,3]"
"","canvas-keyboard-response","180","298732","0.0-6.0-0.29","34","","","","","pre trial waiting period","null","null","","","catch","sw","l","sh","180","200","250","193","192","172","spektor","null","null","null","null","null","null","null","null","null","null","null","","180","200","260","200","36000","52000","[2,3]"
"","canvas-keyboard-response","181","298896","0.0-6.0-1.29","34","","","","","clear_screen","null","null","","","catch","sw","l","sh","180","200","250","193","192","172","spektor","null","null","null","null","null","null","null","null","null","null","null","","180","200","260","200","36000","52000","[2,3]"
"","canvas-keyboard-response","182","300231","0.0-6.0-2.29","34","","","","","rectangles","null","null","","","catch","sw","l","sh","180","200","250","193","192","172","spektor","null","null","null","null","null","null","null","null","null","null","null","","180","200","260","200","36000","52000","[2,3]"
"","canvas-keyboard-response","183","300393","0.0-6.0-3.29","34","","","","","clear_screen","null","null","","","catch","sw","l","sh","180","200","250","193","192","172","spektor","null","null","null","null","null","null","null","null","null","null","null","","180","200","260","200","36000","52000","[2,3]"
"","canvas-keyboard-response","184","301125","0.0-6.0-4.29","34","","","","","make choice","722","2","","","catch","sw","l","sh","180","200","250","193","192","172","spektor","null","null","null","null","null","null","null","null","null","null","null","","180","200","260","200","36000","52000","[2,3]"
"","canvas-keyboard-response","185","301283","0.0-6.0-5.29","34","","","","","clear_screen","null","null","","","catch","sw","l","sh","180","200","250","193","192","172","spektor","null","null","null","null","null","null","null","null","null","null","null","","180","200","260","200","36000","52000","[2,3]"
"","canvas-keyboard-response","186","301485","0.0-6.0-0.30","34","","","","","pre trial waiting period","null","null","","","critical","t","d","c","240","164","240","164","164","240","trueblood","0","w","240","164","164","240","240","164","39360","39360","39360","dc","null","null","null","null","null","null","[2,3]"
"","canvas-keyboard-response","187","301643","0.0-6.0-1.30","34","","","","","clear_screen","null","null","","","critical","t","d","c","240","164","240","164","164","240","trueblood","0","w","240","164","164","240","240","164","39360","39360","39360","dc","null","null","null","null","null","null","[2,3]"
"","canvas-keyboard-response","188","302978","0.0-6.0-2.30","34","","","","","rectangles","null","null","","","critical","t","d","c","240","164","240","164","164","240","trueblood","0","w","240","164","164","240","240","164","39360","39360","39360","dc","null","null","null","null","null","null","[2,3]"
"","canvas-keyboard-response","189","303140","0.0-6.0-3.30","34","","","","","clear_screen","null","null","","","critical","t","d","c","240","164","240","164","164","240","trueblood","0","w","240","164","164","240","240","164","39360","39360","39360","dc","null","null","null","null","null","null","[2,3]"
"","canvas-keyboard-response","190","305869","0.0-6.0-4.30","34","","","","","make choice","2719","3","","","critical","t","d","c","240","164","240","164","164","240","trueblood","0","w","240","164","164","240","240","164","39360","39360","39360","dc","null","null","null","null","null","null","[2,3]"
"","canvas-keyboard-response","191","306027","0.0-6.0-5.30","34","","","","","clear_screen","null","null","","","critical","t","d","c","240","164","240","164","164","240","trueblood","0","w","240","164","164","240","240","164","39360","39360","39360","dc","null","null","null","null","null","null","[2,3]"
"","canvas-keyboard-response","192","306229","0.0-6.0-0.31","34","","","","","pre trial waiting period","null","null","","","catch","sw","l","sh","180","200","192","297","231","164","trueblood","null","null","null","null","null","null","null","null","null","null","null","","180","200","260","200","36000","52000","[1,2]"
"","canvas-keyboard-response","193","306388","0.0-6.0-1.31","34","","","","","clear_screen","null","null","","","catch","sw","l","sh","180","200","192","297","231","164","trueblood","null","null","null","null","null","null","null","null","null","null","null","","180","200","260","200","36000","52000","[1,2]"
"","canvas-keyboard-response","194","307727","0.0-6.0-2.31","34","","","","","rectangles","null","null","","","catch","sw","l","sh","180","200","192","297","231","164","trueblood","null","null","null","null","null","null","null","null","null","null","null","","180","200","260","200","36000","52000","[1,2]"
"","canvas-keyboard-response","195","307887","0.0-6.0-3.31","34","","","","","clear_screen","null","null","","","catch","sw","l","sh","180","200","192","297","231","164","trueblood","null","null","null","null","null","null","null","null","null","null","null","","180","200","260","200","36000","52000","[1,2]"
"","canvas-keyboard-response","196","310038","0.0-6.0-4.31","34","","","","","make choice","2138","2","","","catch","sw","l","sh","180","200","192","297","231","164","trueblood","null","null","null","null","null","null","null","null","null","null","null","","180","200","260","200","36000","52000","[1,2]"
"","canvas-keyboard-response","197","310198","0.0-6.0-5.31","34","","","","","clear_screen","null","null","","","catch","sw","l","sh","180","200","192","297","231","164","trueblood","null","null","null","null","null","null","null","null","null","null","null","","180","200","260","200","36000","52000","[1,2]"
"","canvas-keyboard-response","198","310399","0.0-6.0-0.32","34","","","","","pre trial waiting period","null","null","","","critical","t","d","c","164","240","158.0083","227.1683","240","164","spektor","0.09","h","164","240","240","164","158.0083","227.1683","39360","39360","35894.4834","td","null","null","null","null","null","null","[1,2]"
"","canvas-keyboard-response","199","310562","0.0-6.0-1.32","34","","","","","clear_screen","null","null","","","critical","t","d","c","164","240","158.0083","227.1683","240","164","spektor","0.09","h","164","240","240","164","158.0083","227.1683","39360","39360","35894.4834","td","null","null","null","null","null","null","[1,2]"
"","canvas-keyboard-response","200","311900","0.0-6.0-2.32","34","","","","","rectangles","null","null","","","critical","t","d","c","164","240","158.0083","227.1683","240","164","spektor","0.09","h","164","240","240","164","158.0083","227.1683","39360","39360","35894.4834","td","null","null","null","null","null","null","[1,2]"
"","canvas-keyboard-response","201","312065","0.0-6.0-3.32","34","","","","","clear_screen","null","null","","","critical","t","d","c","164","240","158.0083","227.1683","240","164","spektor","0.09","h","164","240","240","164","158.0083","227.1683","39360","39360","35894.4834","td","null","null","null","null","null","null","[1,2]"
"","canvas-keyboard-response","202","313901","0.0-6.0-4.32","34","","","","","make choice","1826","1","","","critical","t","d","c","164","240","158.0083","227.1683","240","164","spektor","0.09","h","164","240","240","164","158.0083","227.1683","39360","39360","35894.4834","td","null","null","null","null","null","null","[1,2]"
"","canvas-keyboard-response","203","314064","0.0-6.0-5.32","34","","","","","clear_screen","null","null","","","critical","t","d","c","164","240","158.0083","227.1683","240","164","spektor","0.09","h","164","240","240","164","158.0083","227.1683","39360","39360","35894.4834","td","null","null","null","null","null","null","[1,2]"
"","canvas-keyboard-response","204","314266","0.0-6.0-0.33","34","","","","","pre trial waiting period","null","null","","","critical","d","t","c","160.6713","232.8713","164","240","240","164","trueblood","0.05","h","164","240","240","164","160.6713","232.8713","39360","39360","37415.7294","td","null","null","null","null","null","null","[2,1]"
"","canvas-keyboard-response","205","314429","0.0-6.0-1.33","34","","","","","clear_screen","null","null","","","critical","d","t","c","160.6713","232.8713","164","240","240","164","trueblood","0.05","h","164","240","240","164","160.6713","232.8713","39360","39360","37415.7294","td","null","null","null","null","null","null","[2,1]"
"","canvas-keyboard-response","206","315759","0.0-6.0-2.33","34","","","","","rectangles","null","null","","","critical","d","t","c","160.6713","232.8713","164","240","240","164","trueblood","0.05","h","164","240","240","164","160.6713","232.8713","39360","39360","37415.7294","td","null","null","null","null","null","null","[2,1]"
"","canvas-keyboard-response","207","315921","0.0-6.0-3.33","34","","","","","clear_screen","null","null","","","critical","d","t","c","160.6713","232.8713","164","240","240","164","trueblood","0.05","h","164","240","240","164","160.6713","232.8713","39360","39360","37415.7294","td","null","null","null","null","null","null","[2,1]"
"","canvas-keyboard-response","208","317870","0.0-6.0-4.33","34","","","","","make choice","1939","2","","","critical","d","t","c","160.6713","232.8713","164","240","240","164","trueblood","0.05","h","164","240","240","164","160.6713","232.8713","39360","39360","37415.7294","td","null","null","null","null","null","null","[2,1]"
"","canvas-keyboard-response","209","318028","0.0-6.0-5.33","34","","","","","clear_screen","null","null","","","critical","d","t","c","160.6713","232.8713","164","240","240","164","trueblood","0.05","h","164","240","240","164","160.6713","232.8713","39360","39360","37415.7294","td","null","null","null","null","null","null","[2,1]"
"","canvas-keyboard-response","210","318231","0.0-6.0-0.34","34","","","","","pre trial waiting period","null","null","","","catch","sw","l","sh","180","200","294","223","214","188","trueblood","null","null","null","null","null","null","null","null","null","null","null","","180","200","260","200","36000","52000","[1,2]"
"","canvas-keyboard-response","211","318390","0.0-6.0-1.34","34","","","","","clear_screen","null","null","","","catch","sw","l","sh","180","200","294","223","214","188","trueblood","null","null","null","null","null","null","null","null","null","null","null","","180","200","260","200","36000","52000","[1,2]"
"","canvas-keyboard-response","212","319726","0.0-6.0-2.34","34","","","","","rectangles","null","null","","","catch","sw","l","sh","180","200","294","223","214","188","trueblood","null","null","null","null","null","null","null","null","null","null","null","","180","200","260","200","36000","52000","[1,2]"
"","canvas-keyboard-response","213","319893","0.0-6.0-3.34","34","","","","","clear_screen","null","null","","","catch","sw","l","sh","180","200","294","223","214","188","trueblood","null","null","null","null","null","null","null","null","null","null","null","","180","200","260","200","36000","52000","[1,2]"
"","canvas-keyboard-response","214","320845","0.0-6.0-4.34","34","","","","","make choice","939","2","","","catch","sw","l","sh","180","200","294","223","214","188","trueblood","null","null","null","null","null","null","null","null","null","null","null","","180","200","260","200","36000","52000","[1,2]"
"","canvas-keyboard-response","215","321004","0.0-6.0-5.34","34","","","","","clear_screen","null","null","","","catch","sw","l","sh","180","200","294","223","214","188","trueblood","null","null","null","null","null","null","null","null","null","null","null","","180","200","260","200","36000","52000","[1,2]"
"","canvas-keyboard-response","216","321205","0.0-6.0-0.35","34","","","","","pre trial waiting period","null","null","","","catch","sw","l","sh","180","200","228","284","238","187","spektor","null","null","null","null","null","null","null","null","null","null","null","","180","200","260","200","36000","52000","[2,3]"
"","canvas-keyboard-response","217","321364","0.0-6.0-1.35","34","","","","","clear_screen","null","null","","","catch","sw","l","sh","180","200","228","284","238","187","spektor","null","null","null","null","null","null","null","null","null","null","null","","180","200","260","200","36000","52000","[2,3]"
"","canvas-keyboard-response","218","322702","0.0-6.0-2.35","34","","","","","rectangles","null","null","","","catch","sw","l","sh","180","200","228","284","238","187","spektor","null","null","null","null","null","null","null","null","null","null","null","","180","200","260","200","36000","52000","[2,3]"
"","canvas-keyboard-response","219","322865","0.0-6.0-3.35","34","","","","","clear_screen","null","null","","","catch","sw","l","sh","180","200","228","284","238","187","spektor","null","null","null","null","null","null","null","null","null","null","null","","180","200","260","200","36000","52000","[2,3]"
"","canvas-keyboard-response","220","324526","0.0-6.0-4.35","34","","","","","make choice","1651","2","","","catch","sw","l","sh","180","200","228","284","238","187","spektor","null","null","null","null","null","null","null","null","null","null","null","","180","200","260","200","36000","52000","[2,3]"
"","canvas-keyboard-response","221","324686","0.0-6.0-5.35","34","","","","","clear_screen","null","null","","","catch","sw","l","sh","180","200","228","284","238","187","spektor","null","null","null","null","null","null","null","null","null","null","null","","180","200","260","200","36000","52000","[2,3]"
"","canvas-keyboard-response","222","324887","0.0-6.0-0.36","34","","","","","pre trial waiting period","null","null","","","critical","c","t","d","164","240","240","164","237.1485","162.6685","spektor","0.02","w","240","164","164","240","237.1485","162.6685","39360","39360","38576.5967","td","null","null","null","null","null","null","[2,3]"
"","canvas-keyboard-response","223","325049","0.0-6.0-1.36","34","","","","","clear_screen","null","null","","","critical","c","t","d","164","240","240","164","237.1485","162.6685","spektor","0.02","w","240","164","164","240","237.1485","162.6685","39360","39360","38576.5967","td","null","null","null","null","null","null","[2,3]"
"","canvas-keyboard-response","224","326386","0.0-6.0-2.36","34","","","","","rectangles","null","null","","","critical","c","t","d","164","240","240","164","237.1485","162.6685","spektor","0.02","w","240","164","164","240","237.1485","162.6685","39360","39360","38576.5967","td","null","null","null","null","null","null","[2,3]"
"","canvas-keyboard-response","225","326547","0.0-6.0-3.36","34","","","","","clear_screen","null","null","","","critical","c","t","d","164","240","240","164","237.1485","162.6685","spektor","0.02","w","240","164","164","240","237.1485","162.6685","39360","39360","38576.5967","td","null","null","null","null","null","null","[2,3]"
"","canvas-keyboard-response","226","330358","0.0-6.0-4.36","34","","","","","make choice","3803","3","","","critical","c","t","d","164","240","240","164","237.1485","162.6685","spektor","0.02","w","240","164","164","240","237.1485","162.6685","39360","39360","38576.5967","td","null","null","null","null","null","null","[2,3]"
"","canvas-keyboard-response","227","330519","0.0-6.0-5.36","34","","","","","clear_screen","null","null","","","critical","c","t","d","164","240","240","164","237.1485","162.6685","spektor","0.02","w","240","164","164","240","237.1485","162.6685","39360","39360","38576.5967","td","null","null","null","null","null","null","[2,3]"
"","canvas-keyboard-response","228","330720","0.0-6.0-0.37","34","","","","","pre trial waiting period","null","null","","","catch","l","sh","sw","217","237","216","207","198","231","trueblood","null","null","null","null","null","null","null","null","null","null","null","","180","200","260","200","36000","52000","[1,3]"
"","canvas-keyboard-response","229","330885","0.0-6.0-1.37","34","","","","","clear_screen","null","null","","","catch","l","sh","sw","217","237","216","207","198","231","trueblood","null","null","null","null","null","null","null","null","null","null","null","","180","200","260","200","36000","52000","[1,3]"
"","canvas-keyboard-response","230","332221","0.0-6.0-2.37","34","","","","","rectangles","null","null","","","catch","l","sh","sw","217","237","216","207","198","231","trueblood","null","null","null","null","null","null","null","null","null","null","null","","180","200","260","200","36000","52000","[1,3]"
"","canvas-keyboard-response","231","332382","0.0-6.0-3.37","34","","","","","clear_screen","null","null","","","catch","l","sh","sw","217","237","216","207","198","231","trueblood","null","null","null","null","null","null","null","null","null","null","null","","180","200","260","200","36000","52000","[1,3]"
"","canvas-keyboard-response","232","336613","0.0-6.0-4.37","34","","","","","make choice","4219","3","","","catch","l","sh","sw","217","237","216","207","198","231","trueblood","null","null","null","null","null","null","null","null","null","null","null","","180","200","260","200","36000","52000","[1,3]"
"","canvas-keyboard-response","233","336773","0.0-6.0-5.37","34","","","","","clear_screen","null","null","","","catch","l","sh","sw","217","237","216","207","198","231","trueblood","null","null","null","null","null","null","null","null","null","null","null","","180","200","260","200","36000","52000","[1,3]"
"","canvas-keyboard-response","234","336974","0.0-6.0-0.38","34","","","","","pre trial waiting period","null","null","","","catch","sw","sh","l","180","200","234","156","201","244","spektor","null","null","null","null","null","null","null","null","null","null","null","","180","200","260","200","36000","52000","[2,3]"
"","canvas-keyboard-response","235","337133","0.0-6.0-1.38","34","","","","","clear_screen","null","null","","","catch","sw","sh","l","180","200","234","156","201","244","spektor","null","null","null","null","null","null","null","null","null","null","null","","180","200","260","200","36000","52000","[2,3]"
"","canvas-keyboard-response","236","338473","0.0-6.0-2.38","34","","","","","rectangles","null","null","","","catch","sw","sh","l","180","200","234","156","201","244","spektor","null","null","null","null","null","null","null","null","null","null","null","","180","200","260","200","36000","52000","[2,3]"
"","canvas-keyboard-response","237","338633","0.0-6.0-3.38","34","","","","","clear_screen","null","null","","","catch","sw","sh","l","180","200","234","156","201","244","spektor","null","null","null","null","null","null","null","null","null","null","null","","180","200","260","200","36000","52000","[2,3]"
"","canvas-keyboard-response","238","339421","0.0-6.0-4.38","34","","","","","make choice","779","3","","","catch","sw","sh","l","180","200","234","156","201","244","spektor","null","null","null","null","null","null","null","null","null","null","null","","180","200","260","200","36000","52000","[2,3]"
"","canvas-keyboard-response","239","339585","0.0-6.0-5.38","34","","","","","clear_screen","null","null","","","catch","sw","sh","l","180","200","234","156","201","244","spektor","null","null","null","null","null","null","null","null","null","null","null","","180","200","260","200","36000","52000","[2,3]"
"","canvas-keyboard-response","240","339787","0.0-6.0-0.39","34","","","","","pre trial waiting period","null","null","","","critical","c","t","d","240","164","164","240","164","240","spektor","0","h","164","240","240","164","164","240","39360","39360","39360","td","null","null","null","null","null","null","[2,3]"
"","canvas-keyboard-response","241","339951","0.0-6.0-1.39","34","","","","","clear_screen","null","null","","","critical","c","t","d","240","164","164","240","164","240","spektor","0","h","164","240","240","164","164","240","39360","39360","39360","td","null","null","null","null","null","null","[2,3]"
"","canvas-keyboard-response","242","341285","0.0-6.0-2.39","34","","","","","rectangles","null","null","","","critical","c","t","d","240","164","164","240","164","240","spektor","0","h","164","240","240","164","164","240","39360","39360","39360","td","null","null","null","null","null","null","[2,3]"
"","canvas-keyboard-response","243","341445","0.0-6.0-3.39","34","","","","","clear_screen","null","null","","","critical","c","t","d","240","164","164","240","164","240","spektor","0","h","164","240","240","164","164","240","39360","39360","39360","td","null","null","null","null","null","null","[2,3]"
"","canvas-keyboard-response","244","342294","0.0-6.0-4.39","34","","","","","make choice","840","2","","","critical","c","t","d","240","164","164","240","164","240","spektor","0","h","164","240","240","164","164","240","39360","39360","39360","td","null","null","null","null","null","null","[2,3]"
"","canvas-keyboard-response","245","342455","0.0-6.0-5.39","34","","","","","clear_screen","null","null","","","critical","c","t","d","240","164","164","240","164","240","spektor","0","h","164","240","240","164","164","240","39360","39360","39360","td","null","null","null","null","null","null","[2,3]"
"","canvas-keyboard-response","246","342658","0.0-6.0-0.40","34","","","","","pre trial waiting period","null","null","","","catch","l","sh","sw","170","223","190","145","151","166","trueblood","null","null","null","null","null","null","null","null","null","null","null","","180","200","260","200","36000","52000","[1,3]"
"","canvas-keyboard-response","247","342819","0.0-6.0-1.40","34","","","","","clear_screen","null","null","","","catch","l","sh","sw","170","223","190","145","151","166","trueblood","null","null","null","null","null","null","null","null","null","null","null","","180","200","260","200","36000","52000","[1,3]"
"","canvas-keyboard-response","248","344160","0.0-6.0-2.40","34","","","","","rectangles","null","null","","","catch","l","sh","sw","170","223","190","145","151","166","trueblood","null","null","null","null","null","null","null","null","null","null","null","","180","200","260","200","36000","52000","[1,3]"
"","canvas-keyboard-response","249","344324","0.0-6.0-3.40","34","","","","","clear_screen","null","null","","","catch","l","sh","sw","170","223","190","145","151","166","trueblood","null","null","null","null","null","null","null","null","null","null","null","","180","200","260","200","36000","52000","[1,3]"
"","canvas-keyboard-response","250","346518","0.0-6.0-4.40","34","","","","","make choice","2180","1","","","catch","l","sh","sw","170","223","190","145","151","166","trueblood","null","null","null","null","null","null","null","null","null","null","null","","180","200","260","200","36000","52000","[1,3]"
"","canvas-keyboard-response","251","346679","0.0-6.0-5.40","34","","","","","clear_screen","null","null","","","catch","l","sh","sw","170","223","190","145","151","166","trueblood","null","null","null","null","null","null","null","null","null","null","null","","180","200","260","200","36000","52000","[1,3]"
"","canvas-keyboard-response","252","346882","0.0-6.0-0.41","34","","","","","pre trial waiting period","null","null","","","catch","l","sw","sh","269","179","184","209","213","207","trueblood","null","null","null","null","null","null","null","null","null","null","null","","180","200","260","200","36000","52000","[1,2]"
"","canvas-keyboard-response","253","347046","0.0-6.0-1.41","34","","","","","clear_screen","null","null","","","catch","l","sw","sh","269","179","184","209","213","207","trueblood","null","null","null","null","null","null","null","null","null","null","null","","180","200","260","200","36000","52000","[1,2]"
"","canvas-keyboard-response","254","348381","0.0-6.0-2.41","34","","","","","rectangles","null","null","","","catch","l","sw","sh","269","179","184","209","213","207","trueblood","null","null","null","null","null","null","null","null","null","null","null","","180","200","260","200","36000","52000","[1,2]"
"","canvas-keyboard-response","255","348544","0.0-6.0-3.41","34","","","","","clear_screen","null","null","","","catch","l","sw","sh","269","179","184","209","213","207","trueblood","null","null","null","null","null","null","null","null","null","null","null","","180","200","260","200","36000","52000","[1,2]"
"","canvas-keyboard-response","256","349957","0.0-6.0-4.41","34","","","","","make choice","1404","1","","","catch","l","sw","sh","269","179","184","209","213","207","trueblood","null","null","null","null","null","null","null","null","null","null","null","","180","200","260","200","36000","52000","[1,2]"
"","canvas-keyboard-response","257","350114","0.0-6.0-5.41","34","","","","","clear_screen","null","null","","","catch","l","sw","sh","269","179","184","209","213","207","trueblood","null","null","null","null","null","null","null","null","null","null","null","","180","200","260","200","36000","52000","[1,2]"
"","canvas-keyboard-response","258","350317","0.0-6.0-0.42","34","","","","","pre trial waiting period","null","null","","","critical","c","t","d","164","240","240","164","220.0396","154.6796","trueblood","0.14","w","240","164","164","240","220.0396","154.6796","39360","39360","34035.6388","tc","null","null","null","null","null","null","[2,1]"
"","canvas-keyboard-response","259","350477","0.0-6.0-1.42","34","","","","","clear_screen","null","null","","","critical","c","t","d","164","240","240","164","220.0396","154.6796","trueblood","0.14","w","240","164","164","240","220.0396","154.6796","39360","39360","34035.6388","tc","null","null","null","null","null","null","[2,1]"
"","canvas-keyboard-response","260","351817","0.0-6.0-2.42","34","","","","","rectangles","null","null","","","critical","c","t","d","164","240","240","164","220.0396","154.6796","trueblood","0.14","w","240","164","164","240","220.0396","154.6796","39360","39360","34035.6388","tc","null","null","null","null","null","null","[2,1]"
"","canvas-keyboard-response","261","351980","0.0-6.0-3.42","34","","","","","clear_screen","null","null","","","critical","c","t","d","164","240","240","164","220.0396","154.6796","trueblood","0.14","w","240","164","164","240","220.0396","154.6796","39360","39360","34035.6388","tc","null","null","null","null","null","null","[2,1]"
"","canvas-keyboard-response","262","353718","0.0-6.0-4.42","34","","","","","make choice","1726","2","","","critical","c","t","d","164","240","240","164","220.0396","154.6796","trueblood","0.14","w","240","164","164","240","220.0396","154.6796","39360","39360","34035.6388","tc","null","null","null","null","null","null","[2,1]"
"","canvas-keyboard-response","263","353877","0.0-6.0-5.42","34","","","","","clear_screen","null","null","","","critical","c","t","d","164","240","240","164","220.0396","154.6796","trueblood","0.14","w","240","164","164","240","220.0396","154.6796","39360","39360","34035.6388","tc","null","null","null","null","null","null","[2,1]"
"","canvas-keyboard-response","264","354080","0.0-6.0-0.43","34","","","","","pre trial waiting period","null","null","","","catch","sh","l","sw","175","144","203","292","164","167","trueblood","null","null","null","null","null","null","null","null","null","null","null","","180","200","260","200","36000","52000","[2,3]"
"","canvas-keyboard-response","265","354242","0.0-6.0-1.43","34","","","","","clear_screen","null","null","","","catch","sh","l","sw","175","144","203","292","164","167","trueblood","null","null","null","null","null","null","null","null","null","null","null","","180","200","260","200","36000","52000","[2,3]"
"","canvas-keyboard-response","266","355579","0.0-6.0-2.43","34","","","","","rectangles","null","null","","","catch","sh","l","sw","175","144","203","292","164","167","trueblood","null","null","null","null","null","null","null","null","null","null","null","","180","200","260","200","36000","52000","[2,3]"
"","canvas-keyboard-response","267","355741","0.0-6.0-3.43","34","","","","","clear_screen","null","null","","","catch","sh","l","sw","175","144","203","292","164","167","trueblood","null","null","null","null","null","null","null","null","null","null","null","","180","200","260","200","36000","52000","[2,3]"
"","canvas-keyboard-response","268","356542","0.0-6.0-4.43","34","","","","","make choice","791","2","","","catch","sh","l","sw","175","144","203","292","164","167","trueblood","null","null","null","null","null","null","null","null","null","null","null","","180","200","260","200","36000","52000","[2,3]"
"","canvas-keyboard-response","269","356700","0.0-6.0-5.43","34","","","","","clear_screen","null","null","","","catch","sh","l","sw","175","144","203","292","164","167","trueblood","null","null","null","null","null","null","null","null","null","null","null","","180","200","260","200","36000","52000","[2,3]"
"","canvas-keyboard-response","270","356902","0.0-6.0-0.44","34","","","","","pre trial waiting period","null","null","","","critical","t","c","d","164","240","240","164","160.6713","232.8713","trueblood","0.05","h","164","240","240","164","160.6713","232.8713","39360","39360","37415.7294","tc","null","null","null","null","null","null","[1,2]"
"","canvas-keyboard-response","271","357063","0.0-6.0-1.44","34","","","","","clear_screen","null","null","","","critical","t","c","d","164","240","240","164","160.6713","232.8713","trueblood","0.05","h","164","240","240","164","160.6713","232.8713","39360","39360","37415.7294","tc","null","null","null","null","null","null","[1,2]"
"","canvas-keyboard-response","272","358399","0.0-6.0-2.44","34","","","","","rectangles","null","null","","","critical","t","c","d","164","240","240","164","160.6713","232.8713","trueblood","0.05","h","164","240","240","164","160.6713","232.8713","39360","39360","37415.7294","tc","null","null","null","null","null","null","[1,2]"
"","canvas-keyboard-response","273","358561","0.0-6.0-3.44","34","","","","","clear_screen","null","null","","","critical","t","c","d","164","240","240","164","160.6713","232.8713","trueblood","0.05","h","164","240","240","164","160.6713","232.8713","39360","39360","37415.7294","tc","null","null","null","null","null","null","[1,2]"
"","canvas-keyboard-response","274","359725","0.0-6.0-4.44","34","","","","","make choice","1152","1","","","critical","t","c","d","164","240","240","164","160.6713","232.8713","trueblood","0.05","h","164","240","240","164","160.6713","232.8713","39360","39360","37415.7294","tc","null","null","null","null","null","null","[1,2]"
"","canvas-keyboard-response","275","359885","0.0-6.0-5.44","34","","","","","clear_screen","null","null","","","critical","t","c","d","164","240","240","164","160.6713","232.8713","trueblood","0.05","h","164","240","240","164","160.6713","232.8713","39360","39360","37415.7294","tc","null","null","null","null","null","null","[1,2]"
"","canvas-keyboard-response","276","360086","0.0-6.0-0.45","34","","","","","pre trial waiting period","null","null","","","catch","sw","l","sh","180","200","186","242","191","208","spektor","null","null","null","null","null","null","null","null","null","null","null","","180","200","260","200","36000","52000","[1,2]"
"","canvas-keyboard-response","277","360245","0.0-6.0-1.45","34","","","","","clear_screen","null","null","","","catch","sw","l","sh","180","200","186","242","191","208","spektor","null","null","null","null","null","null","null","null","null","null","null","","180","200","260","200","36000","52000","[1,2]"
"","canvas-keyboard-response","278","361580","0.0-6.0-2.45","34","","","","","rectangles","null","null","","","catch","sw","l","sh","180","200","186","242","191","208","spektor","null","null","null","null","null","null","null","null","null","null","null","","180","200","260","200","36000","52000","[1,2]"
"","canvas-keyboard-response","279","361740","0.0-6.0-3.45","34","","","","","clear_screen","null","null","","","catch","sw","l","sh","180","200","186","242","191","208","spektor","null","null","null","null","null","null","null","null","null","null","null","","180","200","260","200","36000","52000","[1,2]"
"","canvas-keyboard-response","280","362853","0.0-6.0-4.45","34","","","","","make choice","1103","2","","","catch","sw","l","sh","180","200","186","242","191","208","spektor","null","null","null","null","null","null","null","null","null","null","null","","180","200","260","200","36000","52000","[1,2]"
"","canvas-keyboard-response","281","363013","0.0-6.0-5.45","34","","","","","clear_screen","null","null","","","catch","sw","l","sh","180","200","186","242","191","208","spektor","null","null","null","null","null","null","null","null","null","null","null","","180","200","260","200","36000","52000","[1,2]"
"","canvas-keyboard-response","282","363214","0.0-6.0-0.46","34","","","","","pre trial waiting period","null","null","","","catch","sw","l","sh","180","200","212","242","228","198","trueblood","null","null","null","null","null","null","null","null","null","null","null","","180","200","260","200","36000","52000","[1,2]"
"","canvas-keyboard-response","283","363373","0.0-6.0-1.46","34","","","","","clear_screen","null","null","","","catch","sw","l","sh","180","200","212","242","228","198","trueblood","null","null","null","null","null","null","null","null","null","null","null","","180","200","260","200","36000","52000","[1,2]"
"","canvas-keyboard-response","284","364711","0.0-6.0-2.46","34","","","","","rectangles","null","null","","","catch","sw","l","sh","180","200","212","242","228","198","trueblood","null","null","null","null","null","null","null","null","null","null","null","","180","200","260","200","36000","52000","[1,2]"
"","canvas-keyboard-response","285","364869","0.0-6.0-3.46","34","","","","","clear_screen","null","null","","","catch","sw","l","sh","180","200","212","242","228","198","trueblood","null","null","null","null","null","null","null","null","null","null","null","","180","200","260","200","36000","52000","[1,2]"
"","canvas-keyboard-response","286","368358","0.0-6.0-4.46","34","","","","","make choice","3477","1","","","catch","sw","l","sh","180","200","212","242","228","198","trueblood","null","null","null","null","null","null","null","null","null","null","null","","180","200","260","200","36000","52000","[1,2]"
"","canvas-keyboard-response","287","368515","0.0-6.0-5.46","34","","","","","clear_screen","null","null","","","catch","sw","l","sh","180","200","212","242","228","198","trueblood","null","null","null","null","null","null","null","null","null","null","null","","180","200","260","200","36000","52000","[1,2]"
"","canvas-keyboard-response","288","368717","0.0-6.0-0.47","34","","","","","pre trial waiting period","null","null","","","critical","t","d","c","240","164","237.1485","162.6685","164","240","trueblood","0.02","w","240","164","164","240","237.1485","162.6685","39360","39360","38576.5967","td","null","null","null","null","null","null","[1,2]"
"","canvas-keyboard-response","289","368880","0.0-6.0-1.47","34","","","","","clear_screen","null","null","","","critical","t","d","c","240","164","237.1485","162.6685","164","240","trueblood","0.02","w","240","164","164","240","237.1485","162.6685","39360","39360","38576.5967","td","null","null","null","null","null","null","[1,2]"
"","canvas-keyboard-response","290","370219","0.0-6.0-2.47","34","","","","","rectangles","null","null","","","critical","t","d","c","240","164","237.1485","162.6685","164","240","trueblood","0.02","w","240","164","164","240","237.1485","162.6685","39360","39360","38576.5967","td","null","null","null","null","null","null","[1,2]"
"","canvas-keyboard-response","291","370378","0.0-6.0-3.47","34","","","","","clear_screen","null","null","","","critical","t","d","c","240","164","237.1485","162.6685","164","240","trueblood","0.02","w","240","164","164","240","237.1485","162.6685","39360","39360","38576.5967","td","null","null","null","null","null","null","[1,2]"
"","canvas-keyboard-response","292","373325","0.0-6.0-4.47","34","","","","","make choice","2936","1","","","critical","t","d","c","240","164","237.1485","162.6685","164","240","trueblood","0.02","w","240","164","164","240","237.1485","162.6685","39360","39360","38576.5967","td","null","null","null","null","null","null","[1,2]"
"","canvas-keyboard-response","293","373485","0.0-6.0-5.47","34","","","","","clear_screen","null","null","","","critical","t","d","c","240","164","237.1485","162.6685","164","240","trueblood","0.02","w","240","164","164","240","237.1485","162.6685","39360","39360","38576.5967","td","null","null","null","null","null","null","[1,2]"
"","canvas-keyboard-response","294","373686","0.0-6.0-0.48","34","","","","","pre trial waiting period","null","null","","","catch","sh","sw","l","201","143","154","216","197","258","spektor","null","null","null","null","null","null","null","null","null","null","null","","180","200","260","200","36000","52000","[1,3]"
"","canvas-keyboard-response","295","373846","0.0-6.0-1.48","34","","","","","clear_screen","null","null","","","catch","sh","sw","l","201","143","154","216","197","258","spektor","null","null","null","null","null","null","null","null","null","null","null","","180","200","260","200","36000","52000","[1,3]"
"","canvas-keyboard-response","296","375185","0.0-6.0-2.48","34","","","","","rectangles","null","null","","","catch","sh","sw","l","201","143","154","216","197","258","spektor","null","null","null","null","null","null","null","null","null","null","null","","180","200","260","200","36000","52000","[1,3]"
"","canvas-keyboard-response","297","375347","0.0-6.0-3.48","34","","","","","clear_screen","null","null","","","catch","sh","sw","l","201","143","154","216","197","258","spektor","null","null","null","null","null","null","null","null","null","null","null","","180","200","260","200","36000","52000","[1,3]"
"","canvas-keyboard-response","298","376439","0.0-6.0-4.48","34","","","","","make choice","1078","3","","","catch","sh","sw","l","201","143","154","216","197","258","spektor","null","null","null","null","null","null","null","null","null","null","null","","180","200","260","200","36000","52000","[1,3]"
"","canvas-keyboard-response","299","376599","0.0-6.0-5.48","34","","","","","clear_screen","null","null","","","catch","sh","sw","l","201","143","154","216","197","258","spektor","null","null","null","null","null","null","null","null","null","null","null","","180","200","260","200","36000","52000","[1,3]"
"","canvas-keyboard-response","300","376803","0.0-6.0-0.49","34","","","","","pre trial waiting period","null","null","","","catch","l","sh","sw","294","163","211","190","154","184","spektor","null","null","null","null","null","null","null","null","null","null","null","","180","200","260","200","36000","52000","[1,3]"
"","canvas-keyboard-response","301","376963","0.0-6.0-1.49","34","","","","","clear_screen","null","null","","","catch","l","sh","sw","294","163","211","190","154","184","spektor","null","null","null","null","null","null","null","null","null","null","null","","180","200","260","200","36000","52000","[1,3]"
"","canvas-keyboard-response","302","378302","0.0-6.0-2.49","34","","","","","rectangles","null","null","","","catch","l","sh","sw","294","163","211","190","154","184","spektor","null","null","null","null","null","null","null","null","null","null","null","","180","200","260","200","36000","52000","[1,3]"
"","canvas-keyboard-response","303","378462","0.0-6.0-3.49","34","","","","","clear_screen","null","null","","","catch","l","sh","sw","294","163","211","190","154","184","spektor","null","null","null","null","null","null","null","null","null","null","null","","180","200","260","200","36000","52000","[1,3]"
"","canvas-keyboard-response","304","379734","0.0-6.0-4.49","34","","","","","make choice","1261","1","","","catch","l","sh","sw","294","163","211","190","154","184","spektor","null","null","null","null","null","null","null","null","null","null","null","","180","200","260","200","36000","52000","[1,3]"
"","canvas-keyboard-response","305","379894","0.0-6.0-5.49","34","","","","","clear_screen","null","null","","","catch","l","sh","sw","294","163","211","190","154","184","spektor","null","null","null","null","null","null","null","null","null","null","null","","180","200","260","200","36000","52000","[1,3]"
"","canvas-keyboard-response","306","380096","0.0-6.0-0.50","34","","","","","pre trial waiting period","null","null","","","catch","sw","sh","l","180","200","237","172","226","241","trueblood","null","null","null","null","null","null","null","null","null","null","null","","180","200","260","200","36000","52000","[2,3]"
"","canvas-keyboard-response","307","380253","0.0-6.0-1.50","34","","","","","clear_screen","null","null","","","catch","sw","sh","l","180","200","237","172","226","241","trueblood","null","null","null","null","null","null","null","null","null","null","null","","180","200","260","200","36000","52000","[2,3]"
"","canvas-keyboard-response","308","381590","0.0-6.0-2.50","34","","","","","rectangles","null","null","","","catch","sw","sh","l","180","200","237","172","226","241","trueblood","null","null","null","null","null","null","null","null","null","null","null","","180","200","260","200","36000","52000","[2,3]"
"","canvas-keyboard-response","309","381753","0.0-6.0-3.50","34","","","","","clear_screen","null","null","","","catch","sw","sh","l","180","200","237","172","226","241","trueblood","null","null","null","null","null","null","null","null","null","null","null","","180","200","260","200","36000","52000","[2,3]"
