success,trial_type,trial_index,time_elapsed,internal_node_id,sub_n,timeout,failed_images,failed_audio,failed_video,screen_id,rt,response,stimulus,view_history,trial,r1,r2,r3,w1,h1,w2,h2,w3,h3,display,tdd,tdo,tw,th,cw,ch,dw,dh,ta,ca,da,probe,csls,csss,clls,clss,sa,la,probe_rects
TRUE,fullscreen,0,2671,0.0-0.0,25,,,,,,,,,,,,,,,,,,,,,,,,,,,,,,,,,,,,,,,
TRUE,preload,1,2690,0.0-1.0,25,FALSE,[],[],[],img preload,,,,,,,,,,,,,,,,,,,,,,,,,,,,,,,,,,
,survey-html-form,2,5559,0.0-2.0,25,,,,,enter-sub-number,2860,"{""response"":""24""}",,,,,,,,,,,,,,,,,,,,,,,,,,,,,,,,
,image-button-response,3,98144,0.0-3.0,25,,,,,,92520,0,consent.png,,,,,,,,,,,,,,,,,,,,,,,,,,,,,,,
,html-button-response,4,107224,0.0-4.0,25,,,,,intro mssg,9073,0,"<div style= ""font-size:25px;"" <p> <strong> Welcome! </strong><br> <p style=""color:#8B0000; font-size:25px;""><strong> Please do NOT exit full screen until you are done with the experiment. </strong> </p><p style=""font-size:25px;color:#8B0000;""> <strong> Your data will be lost <br> if you try to go back or refresh the page after the experiment starts. Feel free to click ""previous"" during the instructions, however.</strong> </p><br><p> <strong> Thanks in advance for your contribution to our research! </strong></p>",,,,,,,,,,,,,,,,,,,,,,,,,,,,,,,
,instructions,5,173343,0.0-5.0,25,,,,,instructions,66115,,,"[{""page_index"":0,""viewing_time"":10698},{""page_index"":1,""viewing_time"":7912},{""page_index"":2,""viewing_time"":5568},{""page_index"":3,""viewing_time"":14816},{""page_index"":4,""viewing_time"":3272},{""page_index"":3,""viewing_time"":12423},{""page_index"":4,""viewing_time"":4611},{""page_index"":5,""viewing_time"":2734},{""page_index"":6,""viewing_time"":2728},{""page_index"":7,""viewing_time"":1353}]",,,,,,,,,,,,,,,,,,,,,,,,,,,,,,
,canvas-keyboard-response,6,173548,0.0-6.0-0.0,25,,,,,pre trial waiting period,null,null,,,critical,t,d,c,240,164,232.8713,160.6713,164,240,spektor,0.05,w,240,164,164,240,232.8713,160.6713,39360,39360,37415.7294,td,null,null,null,null,null,null,"[1,2]"
,canvas-keyboard-response,7,173712,0.0-6.0-1.0,25,,,,,clear_screen,null,null,,,critical,t,d,c,240,164,232.8713,160.6713,164,240,spektor,0.05,w,240,164,164,240,232.8713,160.6713,39360,39360,37415.7294,td,null,null,null,null,null,null,"[1,2]"
,canvas-keyboard-response,8,175054,0.0-6.0-2.0,25,,,,,rectangles,null,null,,,critical,t,d,c,240,164,232.8713,160.6713,164,240,spektor,0.05,w,240,164,164,240,232.8713,160.6713,39360,39360,37415.7294,td,null,null,null,null,null,null,"[1,2]"
,canvas-keyboard-response,9,175213,0.0-6.0-3.0,25,,,,,clear_screen,null,null,,,critical,t,d,c,240,164,232.8713,160.6713,164,240,spektor,0.05,w,240,164,164,240,232.8713,160.6713,39360,39360,37415.7294,td,null,null,null,null,null,null,"[1,2]"
,canvas-keyboard-response,10,178175,0.0-6.0-4.0,25,,,,,make choice,2951,2,,,critical,t,d,c,240,164,232.8713,160.6713,164,240,spektor,0.05,w,240,164,164,240,232.8713,160.6713,39360,39360,37415.7294,td,null,null,null,null,null,null,"[1,2]"
,canvas-keyboard-response,11,178337,0.0-6.0-5.0,25,,,,,clear_screen,null,null,,,critical,t,d,c,240,164,232.8713,160.6713,164,240,spektor,0.05,w,240,164,164,240,232.8713,160.6713,39360,39360,37415.7294,td,null,null,null,null,null,null,"[1,2]"
,canvas-keyboard-response,12,178539,0.0-6.0-0.1,25,,,,,pre trial waiting period,null,null,,,critical,t,d,c,164,240,164,240,240,164,trueblood,0,h,164,240,240,164,164,240,39360,39360,39360,td,null,null,null,null,null,null,"[1,2]"
,canvas-keyboard-response,13,178699,0.0-6.0-1.1,25,,,,,clear_screen,null,null,,,critical,t,d,c,164,240,164,240,240,164,trueblood,0,h,164,240,240,164,164,240,39360,39360,39360,td,null,null,null,null,null,null,"[1,2]"
,canvas-keyboard-response,14,180038,0.0-6.0-2.1,25,,,,,rectangles,null,null,,,critical,t,d,c,164,240,164,240,240,164,trueblood,0,h,164,240,240,164,164,240,39360,39360,39360,td,null,null,null,null,null,null,"[1,2]"
,canvas-keyboard-response,15,180200,0.0-6.0-3.1,25,,,,,clear_screen,null,null,,,critical,t,d,c,164,240,164,240,240,164,trueblood,0,h,164,240,240,164,164,240,39360,39360,39360,td,null,null,null,null,null,null,"[1,2]"
,canvas-keyboard-response,16,183518,0.0-6.0-4.1,25,,,,,make choice,3307,2,,,critical,t,d,c,164,240,164,240,240,164,trueblood,0,h,164,240,240,164,164,240,39360,39360,39360,td,null,null,null,null,null,null,"[1,2]"
,canvas-keyboard-response,17,183679,0.0-6.0-5.1,25,,,,,clear_screen,null,null,,,critical,t,d,c,164,240,164,240,240,164,trueblood,0,h,164,240,240,164,164,240,39360,39360,39360,td,null,null,null,null,null,null,"[1,2]"
,canvas-keyboard-response,18,183883,0.0-6.0-0.2,25,,,,,pre trial waiting period,null,null,,,catch,sw,sh,l,180,200,220,213,295,198,spektor,null,null,null,null,null,null,null,null,null,null,null,,180,200,260,200,36000,52000,"[1,3]"
,canvas-keyboard-response,19,184044,0.0-6.0-1.2,25,,,,,clear_screen,null,null,,,catch,sw,sh,l,180,200,220,213,295,198,spektor,null,null,null,null,null,null,null,null,null,null,null,,180,200,260,200,36000,52000,"[1,3]"
,canvas-keyboard-response,20,185379,0.0-6.0-2.2,25,,,,,rectangles,null,null,,,catch,sw,sh,l,180,200,220,213,295,198,spektor,null,null,null,null,null,null,null,null,null,null,null,,180,200,260,200,36000,52000,"[1,3]"
,canvas-keyboard-response,21,185539,0.0-6.0-3.2,25,,,,,clear_screen,null,null,,,catch,sw,sh,l,180,200,220,213,295,198,spektor,null,null,null,null,null,null,null,null,null,null,null,,180,200,260,200,36000,52000,"[1,3]"
,canvas-keyboard-response,22,188287,0.0-6.0-4.2,25,,,,,make choice,2739,3,,,catch,sw,sh,l,180,200,220,213,295,198,spektor,null,null,null,null,null,null,null,null,null,null,null,,180,200,260,200,36000,52000,"[1,3]"
,canvas-keyboard-response,23,188299,0.0-6.0-5.2,25,,,,,clear_screen,1,4,,,catch,sw,sh,l,180,200,220,213,295,198,spektor,null,null,null,null,null,null,null,null,null,null,null,,180,200,260,200,36000,52000,"[1,3]"
,canvas-keyboard-response,24,188501,0.0-6.0-0.3,25,,,,,pre trial waiting period,null,null,,,critical,c,t,d,240,164,164,240,158.0083,227.1683,trueblood,0.09,h,164,240,240,164,158.0083,227.1683,39360,39360,35894.4834,tc,null,null,null,null,null,null,"[2,1]"
,canvas-keyboard-response,25,188665,0.0-6.0-1.3,25,,,,,clear_screen,null,null,,,critical,c,t,d,240,164,164,240,158.0083,227.1683,trueblood,0.09,h,164,240,240,164,158.0083,227.1683,39360,39360,35894.4834,tc,null,null,null,null,null,null,"[2,1]"
,canvas-keyboard-response,26,190004,0.0-6.0-2.3,25,,,,,rectangles,null,null,,,critical,c,t,d,240,164,164,240,158.0083,227.1683,trueblood,0.09,h,164,240,240,164,158.0083,227.1683,39360,39360,35894.4834,tc,null,null,null,null,null,null,"[2,1]"
,canvas-keyboard-response,27,190169,0.0-6.0-3.3,25,,,,,clear_screen,null,null,,,critical,c,t,d,240,164,164,240,158.0083,227.1683,trueblood,0.09,h,164,240,240,164,158.0083,227.1683,39360,39360,35894.4834,tc,null,null,null,null,null,null,"[2,1]"
,canvas-keyboard-response,28,192343,0.0-6.0-4.3,25,,,,,make choice,2163,2,,,critical,c,t,d,240,164,164,240,158.0083,227.1683,trueblood,0.09,h,164,240,240,164,158.0083,227.1683,39360,39360,35894.4834,tc,null,null,null,null,null,null,"[2,1]"
,canvas-keyboard-response,29,192502,0.0-6.0-5.3,25,,,,,clear_screen,null,null,,,critical,c,t,d,240,164,164,240,158.0083,227.1683,trueblood,0.09,h,164,240,240,164,158.0083,227.1683,39360,39360,35894.4834,tc,null,null,null,null,null,null,"[2,1]"
,canvas-keyboard-response,30,192704,0.0-6.0-0.4,25,,,,,pre trial waiting period,null,null,,,catch,sw,l,sh,180,200,236,278,174,187,trueblood,null,null,null,null,null,null,null,null,null,null,null,,180,200,260,200,36000,52000,"[2,3]"
,canvas-keyboard-response,31,192864,0.0-6.0-1.4,25,,,,,clear_screen,null,null,,,catch,sw,l,sh,180,200,236,278,174,187,trueblood,null,null,null,null,null,null,null,null,null,null,null,,180,200,260,200,36000,52000,"[2,3]"
,canvas-keyboard-response,32,194198,0.0-6.0-2.4,25,,,,,rectangles,null,null,,,catch,sw,l,sh,180,200,236,278,174,187,trueblood,null,null,null,null,null,null,null,null,null,null,null,,180,200,260,200,36000,52000,"[2,3]"
,canvas-keyboard-response,33,194358,0.0-6.0-3.4,25,,,,,clear_screen,null,null,,,catch,sw,l,sh,180,200,236,278,174,187,trueblood,null,null,null,null,null,null,null,null,null,null,null,,180,200,260,200,36000,52000,"[2,3]"
,canvas-keyboard-response,34,195631,0.0-6.0-4.4,25,,,,,make choice,1265,2,,,catch,sw,l,sh,180,200,236,278,174,187,trueblood,null,null,null,null,null,null,null,null,null,null,null,,180,200,260,200,36000,52000,"[2,3]"
,canvas-keyboard-response,35,195789,0.0-6.0-5.4,25,,,,,clear_screen,null,null,,,catch,sw,l,sh,180,200,236,278,174,187,trueblood,null,null,null,null,null,null,null,null,null,null,null,,180,200,260,200,36000,52000,"[2,3]"
,canvas-keyboard-response,36,195991,0.0-6.0-0.5,25,,,,,pre trial waiting period,null,null,,,catch,l,sh,sw,237,184,204,140,214,237,spektor,null,null,null,null,null,null,null,null,null,null,null,,180,200,260,200,36000,52000,"[1,3]"
,canvas-keyboard-response,37,196152,0.0-6.0-1.5,25,,,,,clear_screen,null,null,,,catch,l,sh,sw,237,184,204,140,214,237,spektor,null,null,null,null,null,null,null,null,null,null,null,,180,200,260,200,36000,52000,"[1,3]"
,canvas-keyboard-response,38,197487,0.0-6.0-2.5,25,,,,,rectangles,null,null,,,catch,l,sh,sw,237,184,204,140,214,237,spektor,null,null,null,null,null,null,null,null,null,null,null,,180,200,260,200,36000,52000,"[1,3]"
,canvas-keyboard-response,39,197645,0.0-6.0-3.5,25,,,,,clear_screen,null,null,,,catch,l,sh,sw,237,184,204,140,214,237,spektor,null,null,null,null,null,null,null,null,null,null,null,,180,200,260,200,36000,52000,"[1,3]"
,canvas-keyboard-response,40,200311,0.0-6.0-4.5,25,,,,,make choice,2657,3,,,catch,l,sh,sw,237,184,204,140,214,237,spektor,null,null,null,null,null,null,null,null,null,null,null,,180,200,260,200,36000,52000,"[1,3]"
,canvas-keyboard-response,41,200469,0.0-6.0-5.5,25,,,,,clear_screen,null,null,,,catch,l,sh,sw,237,184,204,140,214,237,spektor,null,null,null,null,null,null,null,null,null,null,null,,180,200,260,200,36000,52000,"[1,3]"
,canvas-keyboard-response,42,200670,0.0-6.0-0.6,25,,,,,pre trial waiting period,null,null,,,critical,d,t,c,227.1683,158.0083,240,164,164,240,trueblood,0.09,w,240,164,164,240,227.1683,158.0083,39360,39360,35894.4834,tc,null,null,null,null,null,null,"[2,3]"
,canvas-keyboard-response,43,200833,0.0-6.0-1.6,25,,,,,clear_screen,null,null,,,critical,d,t,c,227.1683,158.0083,240,164,164,240,trueblood,0.09,w,240,164,164,240,227.1683,158.0083,39360,39360,35894.4834,tc,null,null,null,null,null,null,"[2,3]"
,canvas-keyboard-response,44,202170,0.0-6.0-2.6,25,,,,,rectangles,null,null,,,critical,d,t,c,227.1683,158.0083,240,164,164,240,trueblood,0.09,w,240,164,164,240,227.1683,158.0083,39360,39360,35894.4834,tc,null,null,null,null,null,null,"[2,3]"
,canvas-keyboard-response,45,202328,0.0-6.0-3.6,25,,,,,clear_screen,null,null,,,critical,d,t,c,227.1683,158.0083,240,164,164,240,trueblood,0.09,w,240,164,164,240,227.1683,158.0083,39360,39360,35894.4834,tc,null,null,null,null,null,null,"[2,3]"
,canvas-keyboard-response,46,204063,0.0-6.0-4.6,25,,,,,make choice,1722,3,,,critical,d,t,c,227.1683,158.0083,240,164,164,240,trueblood,0.09,w,240,164,164,240,227.1683,158.0083,39360,39360,35894.4834,tc,null,null,null,null,null,null,"[2,3]"
,canvas-keyboard-response,47,204224,0.0-6.0-5.6,25,,,,,clear_screen,null,null,,,critical,d,t,c,227.1683,158.0083,240,164,164,240,trueblood,0.09,w,240,164,164,240,227.1683,158.0083,39360,39360,35894.4834,tc,null,null,null,null,null,null,"[2,3]"
,canvas-keyboard-response,48,204426,0.0-6.0-0.7,25,,,,,pre trial waiting period,null,null,,,catch,l,sh,sw,219,260,204,181,143,222,spektor,null,null,null,null,null,null,null,null,null,null,null,,180,200,260,200,36000,52000,"[1,3]"
,canvas-keyboard-response,49,204585,0.0-6.0-1.7,25,,,,,clear_screen,null,null,,,catch,l,sh,sw,219,260,204,181,143,222,spektor,null,null,null,null,null,null,null,null,null,null,null,,180,200,260,200,36000,52000,"[1,3]"
,canvas-keyboard-response,50,205924,0.0-6.0-2.7,25,,,,,rectangles,null,null,,,catch,l,sh,sw,219,260,204,181,143,222,spektor,null,null,null,null,null,null,null,null,null,null,null,,180,200,260,200,36000,52000,"[1,3]"
,canvas-keyboard-response,51,206085,0.0-6.0-3.7,25,,,,,clear_screen,null,null,,,catch,l,sh,sw,219,260,204,181,143,222,spektor,null,null,null,null,null,null,null,null,null,null,null,,180,200,260,200,36000,52000,"[1,3]"
,canvas-keyboard-response,52,207078,0.0-6.0-4.7,25,,,,,make choice,985,1,,,catch,l,sh,sw,219,260,204,181,143,222,spektor,null,null,null,null,null,null,null,null,null,null,null,,180,200,260,200,36000,52000,"[1,3]"
,canvas-keyboard-response,53,207238,0.0-6.0-5.7,25,,,,,clear_screen,null,null,,,catch,l,sh,sw,219,260,204,181,143,222,spektor,null,null,null,null,null,null,null,null,null,null,null,,180,200,260,200,36000,52000,"[1,3]"
,canvas-keyboard-response,54,207439,0.0-6.0-0.8,25,,,,,pre trial waiting period,null,null,,,critical,c,t,d,240,164,164,240,158.0083,227.1683,spektor,0.09,h,164,240,240,164,158.0083,227.1683,39360,39360,35894.4834,dc,null,null,null,null,null,null,"[3,1]"
,canvas-keyboard-response,55,207600,0.0-6.0-1.8,25,,,,,clear_screen,null,null,,,critical,c,t,d,240,164,164,240,158.0083,227.1683,spektor,0.09,h,164,240,240,164,158.0083,227.1683,39360,39360,35894.4834,dc,null,null,null,null,null,null,"[3,1]"
,canvas-keyboard-response,56,208940,0.0-6.0-2.8,25,,,,,rectangles,null,null,,,critical,c,t,d,240,164,164,240,158.0083,227.1683,spektor,0.09,h,164,240,240,164,158.0083,227.1683,39360,39360,35894.4834,dc,null,null,null,null,null,null,"[3,1]"
,canvas-keyboard-response,57,209101,0.0-6.0-3.8,25,,,,,clear_screen,null,null,,,critical,c,t,d,240,164,164,240,158.0083,227.1683,spektor,0.09,h,164,240,240,164,158.0083,227.1683,39360,39360,35894.4834,dc,null,null,null,null,null,null,"[3,1]"
,canvas-keyboard-response,58,209591,0.0-6.0-4.8,25,,,,,make choice,478,1,,,critical,c,t,d,240,164,164,240,158.0083,227.1683,spektor,0.09,h,164,240,240,164,158.0083,227.1683,39360,39360,35894.4834,dc,null,null,null,null,null,null,"[3,1]"
,canvas-keyboard-response,59,209750,0.0-6.0-5.8,25,,,,,clear_screen,null,null,,,critical,c,t,d,240,164,164,240,158.0083,227.1683,spektor,0.09,h,164,240,240,164,158.0083,227.1683,39360,39360,35894.4834,dc,null,null,null,null,null,null,"[3,1]"
,canvas-keyboard-response,60,209951,0.0-6.0-0.9,25,,,,,pre trial waiting period,null,null,,,critical,c,d,t,164,240,232.8713,160.6713,240,164,trueblood,0.05,w,240,164,164,240,232.8713,160.6713,39360,39360,37415.7294,td,null,null,null,null,null,null,"[3,2]"
,canvas-keyboard-response,61,210111,0.0-6.0-1.9,25,,,,,clear_screen,null,null,,,critical,c,d,t,164,240,232.8713,160.6713,240,164,trueblood,0.05,w,240,164,164,240,232.8713,160.6713,39360,39360,37415.7294,td,null,null,null,null,null,null,"[3,2]"
,canvas-keyboard-response,62,211445,0.0-6.0-2.9,25,,,,,rectangles,null,null,,,critical,c,d,t,164,240,232.8713,160.6713,240,164,trueblood,0.05,w,240,164,164,240,232.8713,160.6713,39360,39360,37415.7294,td,null,null,null,null,null,null,"[3,2]"
,canvas-keyboard-response,63,211609,0.0-6.0-3.9,25,,,,,clear_screen,null,null,,,critical,c,d,t,164,240,232.8713,160.6713,240,164,trueblood,0.05,w,240,164,164,240,232.8713,160.6713,39360,39360,37415.7294,td,null,null,null,null,null,null,"[3,2]"
,canvas-keyboard-response,64,214542,0.0-6.0-4.9,25,,,,,make choice,2927,2,,,critical,c,d,t,164,240,232.8713,160.6713,240,164,trueblood,0.05,w,240,164,164,240,232.8713,160.6713,39360,39360,37415.7294,td,null,null,null,null,null,null,"[3,2]"
,canvas-keyboard-response,65,214705,0.0-6.0-5.9,25,,,,,clear_screen,null,null,,,critical,c,d,t,164,240,232.8713,160.6713,240,164,trueblood,0.05,w,240,164,164,240,232.8713,160.6713,39360,39360,37415.7294,td,null,null,null,null,null,null,"[3,2]"
,canvas-keyboard-response,66,214908,0.0-6.0-0.10,25,,,,,pre trial waiting period,null,null,,,critical,d,c,t,237.1485,162.6685,164,240,240,164,trueblood,0.02,w,240,164,164,240,237.1485,162.6685,39360,39360,38576.5967,dc,null,null,null,null,null,null,"[1,2]"
,canvas-keyboard-response,67,215074,0.0-6.0-1.10,25,,,,,clear_screen,null,null,,,critical,d,c,t,237.1485,162.6685,164,240,240,164,trueblood,0.02,w,240,164,164,240,237.1485,162.6685,39360,39360,38576.5967,dc,null,null,null,null,null,null,"[1,2]"
,canvas-keyboard-response,68,216413,0.0-6.0-2.10,25,,,,,rectangles,null,null,,,critical,d,c,t,237.1485,162.6685,164,240,240,164,trueblood,0.02,w,240,164,164,240,237.1485,162.6685,39360,39360,38576.5967,dc,null,null,null,null,null,null,"[1,2]"
,canvas-keyboard-response,69,216578,0.0-6.0-3.10,25,,,,,clear_screen,null,null,,,critical,d,c,t,237.1485,162.6685,164,240,240,164,trueblood,0.02,w,240,164,164,240,237.1485,162.6685,39360,39360,38576.5967,dc,null,null,null,null,null,null,"[1,2]"
,canvas-keyboard-response,70,219423,0.0-6.0-4.10,25,,,,,make choice,2837,2,,,critical,d,c,t,237.1485,162.6685,164,240,240,164,trueblood,0.02,w,240,164,164,240,237.1485,162.6685,39360,39360,38576.5967,dc,null,null,null,null,null,null,"[1,2]"
,canvas-keyboard-response,71,219586,0.0-6.0-5.10,25,,,,,clear_screen,null,null,,,critical,d,c,t,237.1485,162.6685,164,240,240,164,trueblood,0.02,w,240,164,164,240,237.1485,162.6685,39360,39360,38576.5967,dc,null,null,null,null,null,null,"[1,2]"
,canvas-keyboard-response,72,219787,0.0-6.0-0.11,25,,,,,pre trial waiting period,null,null,,,critical,d,c,t,237.1485,162.6685,164,240,240,164,trueblood,0.02,w,240,164,164,240,237.1485,162.6685,39360,39360,38576.5967,tc,null,null,null,null,null,null,"[3,2]"
,canvas-keyboard-response,73,219953,0.0-6.0-1.11,25,,,,,clear_screen,null,null,,,critical,d,c,t,237.1485,162.6685,164,240,240,164,trueblood,0.02,w,240,164,164,240,237.1485,162.6685,39360,39360,38576.5967,tc,null,null,null,null,null,null,"[3,2]"
,canvas-keyboard-response,74,221288,0.0-6.0-2.11,25,,,,,rectangles,null,null,,,critical,d,c,t,237.1485,162.6685,164,240,240,164,trueblood,0.02,w,240,164,164,240,237.1485,162.6685,39360,39360,38576.5967,tc,null,null,null,null,null,null,"[3,2]"
,canvas-keyboard-response,75,221446,0.0-6.0-3.11,25,,,,,clear_screen,null,null,,,critical,d,c,t,237.1485,162.6685,164,240,240,164,trueblood,0.02,w,240,164,164,240,237.1485,162.6685,39360,39360,38576.5967,tc,null,null,null,null,null,null,"[3,2]"
,canvas-keyboard-response,76,224895,0.0-6.0-4.11,25,,,,,make choice,3439,3,,,critical,d,c,t,237.1485,162.6685,164,240,240,164,trueblood,0.02,w,240,164,164,240,237.1485,162.6685,39360,39360,38576.5967,tc,null,null,null,null,null,null,"[3,2]"
,canvas-keyboard-response,77,225054,0.0-6.0-5.11,25,,,,,clear_screen,null,null,,,critical,d,c,t,237.1485,162.6685,164,240,240,164,trueblood,0.02,w,240,164,164,240,237.1485,162.6685,39360,39360,38576.5967,tc,null,null,null,null,null,null,"[3,2]"
,canvas-keyboard-response,78,225256,0.0-6.0-0.12,25,,,,,pre trial waiting period,null,null,,,catch,sw,l,sh,180,200,202,266,219,153,spektor,null,null,null,null,null,null,null,null,null,null,null,,180,200,260,200,36000,52000,"[1,2]"
,canvas-keyboard-response,79,225417,0.0-6.0-1.12,25,,,,,clear_screen,null,null,,,catch,sw,l,sh,180,200,202,266,219,153,spektor,null,null,null,null,null,null,null,null,null,null,null,,180,200,260,200,36000,52000,"[1,2]"
,canvas-keyboard-response,80,226752,0.0-6.0-2.12,25,,,,,rectangles,null,null,,,catch,sw,l,sh,180,200,202,266,219,153,spektor,null,null,null,null,null,null,null,null,null,null,null,,180,200,260,200,36000,52000,"[1,2]"
,canvas-keyboard-response,81,226912,0.0-6.0-3.12,25,,,,,clear_screen,null,null,,,catch,sw,l,sh,180,200,202,266,219,153,spektor,null,null,null,null,null,null,null,null,null,null,null,,180,200,260,200,36000,52000,"[1,2]"
,canvas-keyboard-response,82,228895,0.0-6.0-4.12,25,,,,,make choice,1973,2,,,catch,sw,l,sh,180,200,202,266,219,153,spektor,null,null,null,null,null,null,null,null,null,null,null,,180,200,260,200,36000,52000,"[1,2]"
,canvas-keyboard-response,83,229055,0.0-6.0-5.12,25,,,,,clear_screen,null,null,,,catch,sw,l,sh,180,200,202,266,219,153,spektor,null,null,null,null,null,null,null,null,null,null,null,,180,200,260,200,36000,52000,"[1,2]"
,canvas-keyboard-response,84,229257,0.0-6.0-0.13,25,,,,,pre trial waiting period,null,null,,,critical,c,d,t,164,240,232.8713,160.6713,240,164,trueblood,0.05,w,240,164,164,240,232.8713,160.6713,39360,39360,37415.7294,dc,null,null,null,null,null,null,"[2,1]"
,canvas-keyboard-response,85,229415,0.0-6.0-1.13,25,,,,,clear_screen,null,null,,,critical,c,d,t,164,240,232.8713,160.6713,240,164,trueblood,0.05,w,240,164,164,240,232.8713,160.6713,39360,39360,37415.7294,dc,null,null,null,null,null,null,"[2,1]"
,canvas-keyboard-response,86,230752,0.0-6.0-2.13,25,,,,,rectangles,null,null,,,critical,c,d,t,164,240,232.8713,160.6713,240,164,trueblood,0.05,w,240,164,164,240,232.8713,160.6713,39360,39360,37415.7294,dc,null,null,null,null,null,null,"[2,1]"
,canvas-keyboard-response,87,230917,0.0-6.0-3.13,25,,,,,clear_screen,null,null,,,critical,c,d,t,164,240,232.8713,160.6713,240,164,trueblood,0.05,w,240,164,164,240,232.8713,160.6713,39360,39360,37415.7294,dc,null,null,null,null,null,null,"[2,1]"
,canvas-keyboard-response,88,232032,0.0-6.0-4.13,25,,,,,make choice,1103,1,,,critical,c,d,t,164,240,232.8713,160.6713,240,164,trueblood,0.05,w,240,164,164,240,232.8713,160.6713,39360,39360,37415.7294,dc,null,null,null,null,null,null,"[2,1]"
,canvas-keyboard-response,89,232189,0.0-6.0-5.13,25,,,,,clear_screen,null,null,,,critical,c,d,t,164,240,232.8713,160.6713,240,164,trueblood,0.05,w,240,164,164,240,232.8713,160.6713,39360,39360,37415.7294,dc,null,null,null,null,null,null,"[2,1]"
,canvas-keyboard-response,90,232391,0.0-6.0-0.14,25,,,,,pre trial waiting period,null,null,,,critical,d,t,c,240,164,240,164,164,240,spektor,0,w,240,164,164,240,240,164,39360,39360,39360,tc,null,null,null,null,null,null,"[2,3]"
,canvas-keyboard-response,91,232555,0.0-6.0-1.14,25,,,,,clear_screen,null,null,,,critical,d,t,c,240,164,240,164,164,240,spektor,0,w,240,164,164,240,240,164,39360,39360,39360,tc,null,null,null,null,null,null,"[2,3]"
,canvas-keyboard-response,92,233893,0.0-6.0-2.14,25,,,,,rectangles,null,null,,,critical,d,t,c,240,164,240,164,164,240,spektor,0,w,240,164,164,240,240,164,39360,39360,39360,tc,null,null,null,null,null,null,"[2,3]"
,canvas-keyboard-response,93,234054,0.0-6.0-3.14,25,,,,,clear_screen,null,null,,,critical,d,t,c,240,164,240,164,164,240,spektor,0,w,240,164,164,240,240,164,39360,39360,39360,tc,null,null,null,null,null,null,"[2,3]"
,canvas-keyboard-response,94,235878,0.0-6.0-4.14,25,,,,,make choice,1812,2,,,critical,d,t,c,240,164,240,164,164,240,spektor,0,w,240,164,164,240,240,164,39360,39360,39360,tc,null,null,null,null,null,null,"[2,3]"
,canvas-keyboard-response,95,236036,0.0-6.0-5.14,25,,,,,clear_screen,null,null,,,critical,d,t,c,240,164,240,164,164,240,spektor,0,w,240,164,164,240,240,164,39360,39360,39360,tc,null,null,null,null,null,null,"[2,3]"
,canvas-keyboard-response,96,236237,0.0-6.0-0.15,25,,,,,pre trial waiting period,null,null,,,critical,c,t,d,240,164,164,240,162.6685,237.1485,spektor,0.02,h,164,240,240,164,162.6685,237.1485,39360,39360,38576.5967,td,null,null,null,null,null,null,"[2,3]"
,canvas-keyboard-response,97,236400,0.0-6.0-1.15,25,,,,,clear_screen,null,null,,,critical,c,t,d,240,164,164,240,162.6685,237.1485,spektor,0.02,h,164,240,240,164,162.6685,237.1485,39360,39360,38576.5967,td,null,null,null,null,null,null,"[2,3]"
,canvas-keyboard-response,98,237736,0.0-6.0-2.15,25,,,,,rectangles,null,null,,,critical,c,t,d,240,164,164,240,162.6685,237.1485,spektor,0.02,h,164,240,240,164,162.6685,237.1485,39360,39360,38576.5967,td,null,null,null,null,null,null,"[2,3]"
,canvas-keyboard-response,99,237894,0.0-6.0-3.15,25,,,,,clear_screen,null,null,,,critical,c,t,d,240,164,164,240,162.6685,237.1485,spektor,0.02,h,164,240,240,164,162.6685,237.1485,39360,39360,38576.5967,td,null,null,null,null,null,null,"[2,3]"
,canvas-keyboard-response,100,239365,0.0-6.0-4.15,25,,,,,make choice,1462,2,,,critical,c,t,d,240,164,164,240,162.6685,237.1485,spektor,0.02,h,164,240,240,164,162.6685,237.1485,39360,39360,38576.5967,td,null,null,null,null,null,null,"[2,3]"
,canvas-keyboard-response,101,239523,0.0-6.0-5.15,25,,,,,clear_screen,null,null,,,critical,c,t,d,240,164,164,240,162.6685,237.1485,spektor,0.02,h,164,240,240,164,162.6685,237.1485,39360,39360,38576.5967,td,null,null,null,null,null,null,"[2,3]"
,canvas-keyboard-response,102,239724,0.0-6.0-0.16,25,,,,,pre trial waiting period,null,null,,,critical,t,c,d,164,240,240,164,154.6796,220.0396,trueblood,0.14,h,164,240,240,164,154.6796,220.0396,39360,39360,34035.6388,td,null,null,null,null,null,null,"[1,3]"
,canvas-keyboard-response,103,239885,0.0-6.0-1.16,25,,,,,clear_screen,null,null,,,critical,t,c,d,164,240,240,164,154.6796,220.0396,trueblood,0.14,h,164,240,240,164,154.6796,220.0396,39360,39360,34035.6388,td,null,null,null,null,null,null,"[1,3]"
,canvas-keyboard-response,104,241223,0.0-6.0-2.16,25,,,,,rectangles,null,null,,,critical,t,c,d,164,240,240,164,154.6796,220.0396,trueblood,0.14,h,164,240,240,164,154.6796,220.0396,39360,39360,34035.6388,td,null,null,null,null,null,null,"[1,3]"
,canvas-keyboard-response,105,241382,0.0-6.0-3.16,25,,,,,clear_screen,null,null,,,critical,t,c,d,164,240,240,164,154.6796,220.0396,trueblood,0.14,h,164,240,240,164,154.6796,220.0396,39360,39360,34035.6388,td,null,null,null,null,null,null,"[1,3]"
,canvas-keyboard-response,106,242166,0.0-6.0-4.16,25,,,,,make choice,774,1,,,critical,t,c,d,164,240,240,164,154.6796,220.0396,trueblood,0.14,h,164,240,240,164,154.6796,220.0396,39360,39360,34035.6388,td,null,null,null,null,null,null,"[1,3]"
,canvas-keyboard-response,107,242324,0.0-6.0-5.16,25,,,,,clear_screen,null,null,,,critical,t,c,d,164,240,240,164,154.6796,220.0396,trueblood,0.14,h,164,240,240,164,154.6796,220.0396,39360,39360,34035.6388,td,null,null,null,null,null,null,"[1,3]"
,canvas-keyboard-response,108,242525,0.0-6.0-0.17,25,,,,,pre trial waiting period,null,null,,,catch,sw,sh,l,180,200,180,161,292,231,trueblood,null,null,null,null,null,null,null,null,null,null,null,,180,200,260,200,36000,52000,"[2,3]"
,canvas-keyboard-response,109,242683,0.0-6.0-1.17,25,,,,,clear_screen,null,null,,,catch,sw,sh,l,180,200,180,161,292,231,trueblood,null,null,null,null,null,null,null,null,null,null,null,,180,200,260,200,36000,52000,"[2,3]"
,canvas-keyboard-response,110,244023,0.0-6.0-2.17,25,,,,,rectangles,null,null,,,catch,sw,sh,l,180,200,180,161,292,231,trueblood,null,null,null,null,null,null,null,null,null,null,null,,180,200,260,200,36000,52000,"[2,3]"
,canvas-keyboard-response,111,244183,0.0-6.0-3.17,25,,,,,clear_screen,null,null,,,catch,sw,sh,l,180,200,180,161,292,231,trueblood,null,null,null,null,null,null,null,null,null,null,null,,180,200,260,200,36000,52000,"[2,3]"
,canvas-keyboard-response,112,244735,0.0-6.0-4.17,25,,,,,make choice,539,3,,,catch,sw,sh,l,180,200,180,161,292,231,trueblood,null,null,null,null,null,null,null,null,null,null,null,,180,200,260,200,36000,52000,"[2,3]"
,canvas-keyboard-response,113,244894,0.0-6.0-5.17,25,,,,,clear_screen,null,null,,,catch,sw,sh,l,180,200,180,161,292,231,trueblood,null,null,null,null,null,null,null,null,null,null,null,,180,200,260,200,36000,52000,"[2,3]"
,canvas-keyboard-response,114,245096,0.0-6.0-0.18,25,,,,,pre trial waiting period,null,null,,,critical,d,c,t,220.0396,154.6796,164,240,240,164,trueblood,0.14,w,240,164,164,240,220.0396,154.6796,39360,39360,34035.6388,td,null,null,null,null,null,null,"[3,1]"
,canvas-keyboard-response,115,245262,0.0-6.0-1.18,25,,,,,clear_screen,null,null,,,critical,d,c,t,220.0396,154.6796,164,240,240,164,trueblood,0.14,w,240,164,164,240,220.0396,154.6796,39360,39360,34035.6388,td,null,null,null,null,null,null,"[3,1]"
,canvas-keyboard-response,116,246602,0.0-6.0-2.18,25,,,,,rectangles,null,null,,,critical,d,c,t,220.0396,154.6796,164,240,240,164,trueblood,0.14,w,240,164,164,240,220.0396,154.6796,39360,39360,34035.6388,td,null,null,null,null,null,null,"[3,1]"
,canvas-keyboard-response,117,246762,0.0-6.0-3.18,25,,,,,clear_screen,null,null,,,critical,d,c,t,220.0396,154.6796,164,240,240,164,trueblood,0.14,w,240,164,164,240,220.0396,154.6796,39360,39360,34035.6388,td,null,null,null,null,null,null,"[3,1]"
,canvas-keyboard-response,118,247895,0.0-6.0-4.18,25,,,,,make choice,1122,3,,,critical,d,c,t,220.0396,154.6796,164,240,240,164,trueblood,0.14,w,240,164,164,240,220.0396,154.6796,39360,39360,34035.6388,td,null,null,null,null,null,null,"[3,1]"
,canvas-keyboard-response,119,248055,0.0-6.0-5.18,25,,,,,clear_screen,null,null,,,critical,d,c,t,220.0396,154.6796,164,240,240,164,trueblood,0.14,w,240,164,164,240,220.0396,154.6796,39360,39360,34035.6388,td,null,null,null,null,null,null,"[3,1]"
,canvas-keyboard-response,120,248257,0.0-6.0-0.19,25,,,,,pre trial waiting period,null,null,,,catch,sh,sw,l,221,147,178,206,200,239,spektor,null,null,null,null,null,null,null,null,null,null,null,,180,200,260,200,36000,52000,"[2,3]"
,canvas-keyboard-response,121,248421,0.0-6.0-1.19,25,,,,,clear_screen,null,null,,,catch,sh,sw,l,221,147,178,206,200,239,spektor,null,null,null,null,null,null,null,null,null,null,null,,180,200,260,200,36000,52000,"[2,3]"
,canvas-keyboard-response,122,249756,0.0-6.0-2.19,25,,,,,rectangles,null,null,,,catch,sh,sw,l,221,147,178,206,200,239,spektor,null,null,null,null,null,null,null,null,null,null,null,,180,200,260,200,36000,52000,"[2,3]"
,canvas-keyboard-response,123,249915,0.0-6.0-3.19,25,,,,,clear_screen,null,null,,,catch,sh,sw,l,221,147,178,206,200,239,spektor,null,null,null,null,null,null,null,null,null,null,null,,180,200,260,200,36000,52000,"[2,3]"
,canvas-keyboard-response,124,251198,0.0-6.0-4.19,25,,,,,make choice,1274,3,,,catch,sh,sw,l,221,147,178,206,200,239,spektor,null,null,null,null,null,null,null,null,null,null,null,,180,200,260,200,36000,52000,"[2,3]"
,canvas-keyboard-response,125,251357,0.0-6.0-5.19,25,,,,,clear_screen,null,null,,,catch,sh,sw,l,221,147,178,206,200,239,spektor,null,null,null,null,null,null,null,null,null,null,null,,180,200,260,200,36000,52000,"[2,3]"
,canvas-keyboard-response,126,251558,0.0-6.0-0.20,25,,,,,pre trial waiting period,null,null,,,catch,l,sw,sh,160,267,214,188,163,218,trueblood,null,null,null,null,null,null,null,null,null,null,null,,180,200,260,200,36000,52000,"[1,2]"
,canvas-keyboard-response,127,251718,0.0-6.0-1.20,25,,,,,clear_screen,null,null,,,catch,l,sw,sh,160,267,214,188,163,218,trueblood,null,null,null,null,null,null,null,null,null,null,null,,180,200,260,200,36000,52000,"[1,2]"
,canvas-keyboard-response,128,253054,0.0-6.0-2.20,25,,,,,rectangles,null,null,,,catch,l,sw,sh,160,267,214,188,163,218,trueblood,null,null,null,null,null,null,null,null,null,null,null,,180,200,260,200,36000,52000,"[1,2]"
,canvas-keyboard-response,129,253215,0.0-6.0-3.20,25,,,,,clear_screen,null,null,,,catch,l,sw,sh,160,267,214,188,163,218,trueblood,null,null,null,null,null,null,null,null,null,null,null,,180,200,260,200,36000,52000,"[1,2]"
,canvas-keyboard-response,130,253928,0.0-6.0-4.20,25,,,,,make choice,700,1,,,catch,l,sw,sh,160,267,214,188,163,218,trueblood,null,null,null,null,null,null,null,null,null,null,null,,180,200,260,200,36000,52000,"[1,2]"
,canvas-keyboard-response,131,254086,0.0-6.0-5.20,25,,,,,clear_screen,null,null,,,catch,l,sw,sh,160,267,214,188,163,218,trueblood,null,null,null,null,null,null,null,null,null,null,null,,180,200,260,200,36000,52000,"[1,2]"
,canvas-keyboard-response,132,254287,0.0-6.0-0.21,25,,,,,pre trial waiting period,null,null,,,catch,l,sh,sw,222,242,189,184,218,207,trueblood,null,null,null,null,null,null,null,null,null,null,null,,180,200,260,200,36000,52000,"[1,2]"
,canvas-keyboard-response,133,254448,0.0-6.0-1.21,25,,,,,clear_screen,null,null,,,catch,l,sh,sw,222,242,189,184,218,207,trueblood,null,null,null,null,null,null,null,null,null,null,null,,180,200,260,200,36000,52000,"[1,2]"
,canvas-keyboard-response,134,255783,0.0-6.0-2.21,25,,,,,rectangles,null,null,,,catch,l,sh,sw,222,242,189,184,218,207,trueblood,null,null,null,null,null,null,null,null,null,null,null,,180,200,260,200,36000,52000,"[1,2]"
,canvas-keyboard-response,135,255946,0.0-6.0-3.21,25,,,,,clear_screen,null,null,,,catch,l,sh,sw,222,242,189,184,218,207,trueblood,null,null,null,null,null,null,null,null,null,null,null,,180,200,260,200,36000,52000,"[1,2]"
,canvas-keyboard-response,136,256423,0.0-6.0-4.21,25,,,,,make choice,468,1,,,catch,l,sh,sw,222,242,189,184,218,207,trueblood,null,null,null,null,null,null,null,null,null,null,null,,180,200,260,200,36000,52000,"[1,2]"
,canvas-keyboard-response,137,256582,0.0-6.0-5.21,25,,,,,clear_screen,null,null,,,catch,l,sh,sw,222,242,189,184,218,207,trueblood,null,null,null,null,null,null,null,null,null,null,null,,180,200,260,200,36000,52000,"[1,2]"
,canvas-keyboard-response,138,256784,0.0-6.0-0.22,25,,,,,pre trial waiting period,null,null,,,critical,c,t,d,164,240,240,164,237.1485,162.6685,trueblood,0.02,w,240,164,164,240,237.1485,162.6685,39360,39360,38576.5967,td,null,null,null,null,null,null,"[2,3]"
,canvas-keyboard-response,139,256943,0.0-6.0-1.22,25,,,,,clear_screen,null,null,,,critical,c,t,d,164,240,240,164,237.1485,162.6685,trueblood,0.02,w,240,164,164,240,237.1485,162.6685,39360,39360,38576.5967,td,null,null,null,null,null,null,"[2,3]"
,canvas-keyboard-response,140,258280,0.0-6.0-2.22,25,,,,,rectangles,null,null,,,critical,c,t,d,164,240,240,164,237.1485,162.6685,trueblood,0.02,w,240,164,164,240,237.1485,162.6685,39360,39360,38576.5967,td,null,null,null,null,null,null,"[2,3]"
,canvas-keyboard-response,141,258443,0.0-6.0-3.22,25,,,,,clear_screen,null,null,,,critical,c,t,d,164,240,240,164,237.1485,162.6685,trueblood,0.02,w,240,164,164,240,237.1485,162.6685,39360,39360,38576.5967,td,null,null,null,null,null,null,"[2,3]"
,canvas-keyboard-response,142,260214,0.0-6.0-4.22,25,,,,,make choice,1762,3,,,critical,c,t,d,164,240,240,164,237.1485,162.6685,trueblood,0.02,w,240,164,164,240,237.1485,162.6685,39360,39360,38576.5967,td,null,null,null,null,null,null,"[2,3]"
,canvas-keyboard-response,143,260372,0.0-6.0-5.22,25,,,,,clear_screen,null,null,,,critical,c,t,d,164,240,240,164,237.1485,162.6685,trueblood,0.02,w,240,164,164,240,237.1485,162.6685,39360,39360,38576.5967,td,null,null,null,null,null,null,"[2,3]"
,canvas-keyboard-response,144,260573,0.0-6.0-0.23,25,,,,,pre trial waiting period,null,null,,,critical,d,t,c,160.6713,232.8713,164,240,240,164,trueblood,0.05,h,164,240,240,164,160.6713,232.8713,39360,39360,37415.7294,tc,null,null,null,null,null,null,"[2,3]"
,canvas-keyboard-response,145,260733,0.0-6.0-1.23,25,,,,,clear_screen,null,null,,,critical,d,t,c,160.6713,232.8713,164,240,240,164,trueblood,0.05,h,164,240,240,164,160.6713,232.8713,39360,39360,37415.7294,tc,null,null,null,null,null,null,"[2,3]"
,canvas-keyboard-response,146,262072,0.0-6.0-2.23,25,,,,,rectangles,null,null,,,critical,d,t,c,160.6713,232.8713,164,240,240,164,trueblood,0.05,h,164,240,240,164,160.6713,232.8713,39360,39360,37415.7294,tc,null,null,null,null,null,null,"[2,3]"
,canvas-keyboard-response,147,262233,0.0-6.0-3.23,25,,,,,clear_screen,null,null,,,critical,d,t,c,160.6713,232.8713,164,240,240,164,trueblood,0.05,h,164,240,240,164,160.6713,232.8713,39360,39360,37415.7294,tc,null,null,null,null,null,null,"[2,3]"
,canvas-keyboard-response,148,263311,0.0-6.0-4.23,25,,,,,make choice,1063,2,,,critical,d,t,c,160.6713,232.8713,164,240,240,164,trueblood,0.05,h,164,240,240,164,160.6713,232.8713,39360,39360,37415.7294,tc,null,null,null,null,null,null,"[2,3]"
,canvas-keyboard-response,149,263470,0.0-6.0-5.23,25,,,,,clear_screen,null,null,,,critical,d,t,c,160.6713,232.8713,164,240,240,164,trueblood,0.05,h,164,240,240,164,160.6713,232.8713,39360,39360,37415.7294,tc,null,null,null,null,null,null,"[2,3]"
,canvas-keyboard-response,150,263670,0.0-6.0-0.24,25,,,,,pre trial waiting period,null,null,,,catch,sw,l,sh,180,200,174,292,165,196,trueblood,null,null,null,null,null,null,null,null,null,null,null,,180,200,260,200,36000,52000,"[2,3]"
,canvas-keyboard-response,151,263833,0.0-6.0-1.24,25,,,,,clear_screen,null,null,,,catch,sw,l,sh,180,200,174,292,165,196,trueblood,null,null,null,null,null,null,null,null,null,null,null,,180,200,260,200,36000,52000,"[2,3]"
,canvas-keyboard-response,152,265168,0.0-6.0-2.24,25,,,,,rectangles,null,null,,,catch,sw,l,sh,180,200,174,292,165,196,trueblood,null,null,null,null,null,null,null,null,null,null,null,,180,200,260,200,36000,52000,"[2,3]"
,canvas-keyboard-response,153,265329,0.0-6.0-3.24,25,,,,,clear_screen,null,null,,,catch,sw,l,sh,180,200,174,292,165,196,trueblood,null,null,null,null,null,null,null,null,null,null,null,,180,200,260,200,36000,52000,"[2,3]"
,canvas-keyboard-response,154,265791,0.0-6.0-4.24,25,,,,,make choice,448,2,,,catch,sw,l,sh,180,200,174,292,165,196,trueblood,null,null,null,null,null,null,null,null,null,null,null,,180,200,260,200,36000,52000,"[2,3]"
,canvas-keyboard-response,155,265950,0.0-6.0-5.24,25,,,,,clear_screen,null,null,,,catch,sw,l,sh,180,200,174,292,165,196,trueblood,null,null,null,null,null,null,null,null,null,null,null,,180,200,260,200,36000,52000,"[2,3]"
,canvas-keyboard-response,156,266151,0.0-6.0-0.25,25,,,,,pre trial waiting period,null,null,,,catch,sh,sw,l,217,165,190,191,235,299,spektor,null,null,null,null,null,null,null,null,null,null,null,,180,200,260,200,36000,52000,"[1,3]"
,canvas-keyboard-response,157,266313,0.0-6.0-1.25,25,,,,,clear_screen,null,null,,,catch,sh,sw,l,217,165,190,191,235,299,spektor,null,null,null,null,null,null,null,null,null,null,null,,180,200,260,200,36000,52000,"[1,3]"
,canvas-keyboard-response,158,267653,0.0-6.0-2.25,25,,,,,rectangles,null,null,,,catch,sh,sw,l,217,165,190,191,235,299,spektor,null,null,null,null,null,null,null,null,null,null,null,,180,200,260,200,36000,52000,"[1,3]"
,canvas-keyboard-response,159,267813,0.0-6.0-3.25,25,,,,,clear_screen,null,null,,,catch,sh,sw,l,217,165,190,191,235,299,spektor,null,null,null,null,null,null,null,null,null,null,null,,180,200,260,200,36000,52000,"[1,3]"
,canvas-keyboard-response,160,268286,0.0-6.0-4.25,25,,,,,make choice,461,3,,,catch,sh,sw,l,217,165,190,191,235,299,spektor,null,null,null,null,null,null,null,null,null,null,null,,180,200,260,200,36000,52000,"[1,3]"
,canvas-keyboard-response,161,268447,0.0-6.0-5.25,25,,,,,clear_screen,null,null,,,catch,sh,sw,l,217,165,190,191,235,299,spektor,null,null,null,null,null,null,null,null,null,null,null,,180,200,260,200,36000,52000,"[1,3]"
,canvas-keyboard-response,162,268649,0.0-6.0-0.26,25,,,,,pre trial waiting period,null,null,,,critical,d,c,t,240,164,164,240,240,164,spektor,0,w,240,164,164,240,240,164,39360,39360,39360,td,null,null,null,null,null,null,"[3,1]"
,canvas-keyboard-response,163,268812,0.0-6.0-1.26,25,,,,,clear_screen,null,null,,,critical,d,c,t,240,164,164,240,240,164,spektor,0,w,240,164,164,240,240,164,39360,39360,39360,td,null,null,null,null,null,null,"[3,1]"
,canvas-keyboard-response,164,270149,0.0-6.0-2.26,25,,,,,rectangles,null,null,,,critical,d,c,t,240,164,164,240,240,164,spektor,0,w,240,164,164,240,240,164,39360,39360,39360,td,null,null,null,null,null,null,"[3,1]"
,canvas-keyboard-response,165,270309,0.0-6.0-3.26,25,,,,,clear_screen,null,null,,,critical,d,c,t,240,164,164,240,240,164,spektor,0,w,240,164,164,240,240,164,39360,39360,39360,td,null,null,null,null,null,null,"[3,1]"
,canvas-keyboard-response,166,271838,0.0-6.0-4.26,25,,,,,make choice,1519,1,,,critical,d,c,t,240,164,164,240,240,164,spektor,0,w,240,164,164,240,240,164,39360,39360,39360,td,null,null,null,null,null,null,"[3,1]"
,canvas-keyboard-response,167,271999,0.0-6.0-5.26,25,,,,,clear_screen,null,null,,,critical,d,c,t,240,164,164,240,240,164,spektor,0,w,240,164,164,240,240,164,39360,39360,39360,td,null,null,null,null,null,null,"[3,1]"
,canvas-keyboard-response,168,272201,0.0-6.0-0.27,25,,,,,pre trial waiting period,null,null,,,critical,t,c,d,164,240,240,164,164,240,spektor,0,h,164,240,240,164,164,240,39360,39360,39360,tc,null,null,null,null,null,null,"[1,2]"
,canvas-keyboard-response,169,272360,0.0-6.0-1.27,25,,,,,clear_screen,null,null,,,critical,t,c,d,164,240,240,164,164,240,spektor,0,h,164,240,240,164,164,240,39360,39360,39360,tc,null,null,null,null,null,null,"[1,2]"
,canvas-keyboard-response,170,273700,0.0-6.0-2.27,25,,,,,rectangles,null,null,,,critical,t,c,d,164,240,240,164,164,240,spektor,0,h,164,240,240,164,164,240,39360,39360,39360,tc,null,null,null,null,null,null,"[1,2]"
,canvas-keyboard-response,171,273859,0.0-6.0-3.27,25,,,,,clear_screen,null,null,,,critical,t,c,d,164,240,240,164,164,240,spektor,0,h,164,240,240,164,164,240,39360,39360,39360,tc,null,null,null,null,null,null,"[1,2]"
,canvas-keyboard-response,172,275031,0.0-6.0-4.27,25,,,,,make choice,1160,2,,,critical,t,c,d,164,240,240,164,164,240,spektor,0,h,164,240,240,164,164,240,39360,39360,39360,tc,null,null,null,null,null,null,"[1,2]"
,canvas-keyboard-response,173,275190,0.0-6.0-5.27,25,,,,,clear_screen,null,null,,,critical,t,c,d,164,240,240,164,164,240,spektor,0,h,164,240,240,164,164,240,39360,39360,39360,tc,null,null,null,null,null,null,"[1,2]"
,canvas-keyboard-response,174,275391,0.0-6.0-0.28,25,,,,,pre trial waiting period,null,null,,,critical,t,c,d,164,240,240,164,162.6685,237.1485,spektor,0.02,h,164,240,240,164,162.6685,237.1485,39360,39360,38576.5967,dc,null,null,null,null,null,null,"[3,2]"
,canvas-keyboard-response,175,275557,0.0-6.0-1.28,25,,,,,clear_screen,null,null,,,critical,t,c,d,164,240,240,164,162.6685,237.1485,spektor,0.02,h,164,240,240,164,162.6685,237.1485,39360,39360,38576.5967,dc,null,null,null,null,null,null,"[3,2]"
,canvas-keyboard-response,176,276888,0.0-6.0-2.28,25,,,,,rectangles,null,null,,,critical,t,c,d,164,240,240,164,162.6685,237.1485,spektor,0.02,h,164,240,240,164,162.6685,237.1485,39360,39360,38576.5967,dc,null,null,null,null,null,null,"[3,2]"
,canvas-keyboard-response,177,277049,0.0-6.0-3.28,25,,,,,clear_screen,null,null,,,critical,t,c,d,164,240,240,164,162.6685,237.1485,spektor,0.02,h,164,240,240,164,162.6685,237.1485,39360,39360,38576.5967,dc,null,null,null,null,null,null,"[3,2]"
,canvas-keyboard-response,178,277534,0.0-6.0-4.28,25,,,,,make choice,477,2,,,critical,t,c,d,164,240,240,164,162.6685,237.1485,spektor,0.02,h,164,240,240,164,162.6685,237.1485,39360,39360,38576.5967,dc,null,null,null,null,null,null,"[3,2]"
,canvas-keyboard-response,179,277694,0.0-6.0-5.28,25,,,,,clear_screen,null,null,,,critical,t,c,d,164,240,240,164,162.6685,237.1485,spektor,0.02,h,164,240,240,164,162.6685,237.1485,39360,39360,38576.5967,dc,null,null,null,null,null,null,"[3,2]"
,canvas-keyboard-response,180,277896,0.0-6.0-0.29,25,,,,,pre trial waiting period,null,null,,,critical,d,c,t,227.1683,158.0083,164,240,240,164,spektor,0.09,w,240,164,164,240,227.1683,158.0083,39360,39360,35894.4834,tc,null,null,null,null,null,null,"[3,2]"
,canvas-keyboard-response,181,278057,0.0-6.0-1.29,25,,,,,clear_screen,null,null,,,critical,d,c,t,227.1683,158.0083,164,240,240,164,spektor,0.09,w,240,164,164,240,227.1683,158.0083,39360,39360,35894.4834,tc,null,null,null,null,null,null,"[3,2]"
,canvas-keyboard-response,182,279392,0.0-6.0-2.29,25,,,,,rectangles,null,null,,,critical,d,c,t,227.1683,158.0083,164,240,240,164,spektor,0.09,w,240,164,164,240,227.1683,158.0083,39360,39360,35894.4834,tc,null,null,null,null,null,null,"[3,2]"
,canvas-keyboard-response,183,279557,0.0-6.0-3.29,25,,,,,clear_screen,null,null,,,critical,d,c,t,227.1683,158.0083,164,240,240,164,spektor,0.09,w,240,164,164,240,227.1683,158.0083,39360,39360,35894.4834,tc,null,null,null,null,null,null,"[3,2]"
,canvas-keyboard-response,184,281022,0.0-6.0-4.29,25,,,,,make choice,1455,2,,,critical,d,c,t,227.1683,158.0083,164,240,240,164,spektor,0.09,w,240,164,164,240,227.1683,158.0083,39360,39360,35894.4834,tc,null,null,null,null,null,null,"[3,2]"
,canvas-keyboard-response,185,281183,0.0-6.0-5.29,25,,,,,clear_screen,null,null,,,critical,d,c,t,227.1683,158.0083,164,240,240,164,spektor,0.09,w,240,164,164,240,227.1683,158.0083,39360,39360,35894.4834,tc,null,null,null,null,null,null,"[3,2]"
,canvas-keyboard-response,186,281385,0.0-6.0-0.30,25,,,,,pre trial waiting period,null,null,,,catch,l,sw,sh,171,242,215,181,190,174,trueblood,null,null,null,null,null,null,null,null,null,null,null,,180,200,260,200,36000,52000,"[1,3]"
,canvas-keyboard-response,187,281548,0.0-6.0-1.30,25,,,,,clear_screen,null,null,,,catch,l,sw,sh,171,242,215,181,190,174,trueblood,null,null,null,null,null,null,null,null,null,null,null,,180,200,260,200,36000,52000,"[1,3]"
,canvas-keyboard-response,188,282883,0.0-6.0-2.30,25,,,,,rectangles,null,null,,,catch,l,sw,sh,171,242,215,181,190,174,trueblood,null,null,null,null,null,null,null,null,null,null,null,,180,200,260,200,36000,52000,"[1,3]"
,canvas-keyboard-response,189,283044,0.0-6.0-3.30,25,,,,,clear_screen,null,null,,,catch,l,sw,sh,171,242,215,181,190,174,trueblood,null,null,null,null,null,null,null,null,null,null,null,,180,200,260,200,36000,52000,"[1,3]"
,canvas-keyboard-response,190,283487,0.0-6.0-4.30,25,,,,,make choice,431,1,,,catch,l,sw,sh,171,242,215,181,190,174,trueblood,null,null,null,null,null,null,null,null,null,null,null,,180,200,260,200,36000,52000,"[1,3]"
,canvas-keyboard-response,191,283646,0.0-6.0-5.30,25,,,,,clear_screen,null,null,,,catch,l,sw,sh,171,242,215,181,190,174,trueblood,null,null,null,null,null,null,null,null,null,null,null,,180,200,260,200,36000,52000,"[1,3]"
,canvas-keyboard-response,192,283847,0.0-6.0-0.31,25,,,,,pre trial waiting period,null,null,,,catch,sh,sw,l,216,181,157,167,227,166,spektor,null,null,null,null,null,null,null,null,null,null,null,,180,200,260,200,36000,52000,"[2,3]"
,canvas-keyboard-response,193,284009,0.0-6.0-1.31,25,,,,,clear_screen,null,null,,,catch,sh,sw,l,216,181,157,167,227,166,spektor,null,null,null,null,null,null,null,null,null,null,null,,180,200,260,200,36000,52000,"[2,3]"
,canvas-keyboard-response,194,285344,0.0-6.0-2.31,25,,,,,rectangles,null,null,,,catch,sh,sw,l,216,181,157,167,227,166,spektor,null,null,null,null,null,null,null,null,null,null,null,,180,200,260,200,36000,52000,"[2,3]"
,canvas-keyboard-response,195,285503,0.0-6.0-3.31,25,,,,,clear_screen,null,null,,,catch,sh,sw,l,216,181,157,167,227,166,spektor,null,null,null,null,null,null,null,null,null,null,null,,180,200,260,200,36000,52000,"[2,3]"
,canvas-keyboard-response,196,285847,0.0-6.0-4.31,25,,,,,make choice,334,3,,,catch,sh,sw,l,216,181,157,167,227,166,spektor,null,null,null,null,null,null,null,null,null,null,null,,180,200,260,200,36000,52000,"[2,3]"
,canvas-keyboard-response,197,286008,0.0-6.0-5.31,25,,,,,clear_screen,null,null,,,catch,sh,sw,l,216,181,157,167,227,166,spektor,null,null,null,null,null,null,null,null,null,null,null,,180,200,260,200,36000,52000,"[2,3]"
,canvas-keyboard-response,198,286209,0.0-6.0-0.32,25,,,,,pre trial waiting period,null,null,,,critical,d,t,c,162.6685,237.1485,164,240,240,164,trueblood,0.02,h,164,240,240,164,162.6685,237.1485,39360,39360,38576.5967,tc,null,null,null,null,null,null,"[2,3]"
,canvas-keyboard-response,199,286368,0.0-6.0-1.32,25,,,,,clear_screen,null,null,,,critical,d,t,c,162.6685,237.1485,164,240,240,164,trueblood,0.02,h,164,240,240,164,162.6685,237.1485,39360,39360,38576.5967,tc,null,null,null,null,null,null,"[2,3]"
,canvas-keyboard-response,200,287703,0.0-6.0-2.32,25,,,,,rectangles,null,null,,,critical,d,t,c,162.6685,237.1485,164,240,240,164,trueblood,0.02,h,164,240,240,164,162.6685,237.1485,39360,39360,38576.5967,tc,null,null,null,null,null,null,"[2,3]"
,canvas-keyboard-response,201,287862,0.0-6.0-3.32,25,,,,,clear_screen,null,null,,,critical,d,t,c,162.6685,237.1485,164,240,240,164,trueblood,0.02,h,164,240,240,164,162.6685,237.1485,39360,39360,38576.5967,tc,null,null,null,null,null,null,"[2,3]"
,canvas-keyboard-response,202,288296,0.0-6.0-4.32,25,,,,,make choice,424,3,,,critical,d,t,c,162.6685,237.1485,164,240,240,164,trueblood,0.02,h,164,240,240,164,162.6685,237.1485,39360,39360,38576.5967,tc,null,null,null,null,null,null,"[2,3]"
,canvas-keyboard-response,203,288456,0.0-6.0-5.32,25,,,,,clear_screen,null,null,,,critical,d,t,c,162.6685,237.1485,164,240,240,164,trueblood,0.02,h,164,240,240,164,162.6685,237.1485,39360,39360,38576.5967,tc,null,null,null,null,null,null,"[2,3]"
,canvas-keyboard-response,204,288658,0.0-6.0-0.33,25,,,,,pre trial waiting period,null,null,,,critical,t,c,d,240,164,164,240,220.0396,154.6796,trueblood,0.14,w,240,164,164,240,220.0396,154.6796,39360,39360,34035.6388,dc,null,null,null,null,null,null,"[3,2]"
,canvas-keyboard-response,205,288821,0.0-6.0-1.33,25,,,,,clear_screen,null,null,,,critical,t,c,d,240,164,164,240,220.0396,154.6796,trueblood,0.14,w,240,164,164,240,220.0396,154.6796,39360,39360,34035.6388,dc,null,null,null,null,null,null,"[3,2]"
,canvas-keyboard-response,206,290160,0.0-6.0-2.33,25,,,,,rectangles,null,null,,,critical,t,c,d,240,164,164,240,220.0396,154.6796,trueblood,0.14,w,240,164,164,240,220.0396,154.6796,39360,39360,34035.6388,dc,null,null,null,null,null,null,"[3,2]"
,canvas-keyboard-response,207,290321,0.0-6.0-3.33,25,,,,,clear_screen,null,null,,,critical,t,c,d,240,164,164,240,220.0396,154.6796,trueblood,0.14,w,240,164,164,240,220.0396,154.6796,39360,39360,34035.6388,dc,null,null,null,null,null,null,"[3,2]"
,canvas-keyboard-response,208,293214,0.0-6.0-4.33,25,,,,,make choice,2884,2,,,critical,t,c,d,240,164,164,240,220.0396,154.6796,trueblood,0.14,w,240,164,164,240,220.0396,154.6796,39360,39360,34035.6388,dc,null,null,null,null,null,null,"[3,2]"
,canvas-keyboard-response,209,293374,0.0-6.0-5.33,25,,,,,clear_screen,null,null,,,critical,t,c,d,240,164,164,240,220.0396,154.6796,trueblood,0.14,w,240,164,164,240,220.0396,154.6796,39360,39360,34035.6388,dc,null,null,null,null,null,null,"[3,2]"
,canvas-keyboard-response,210,293575,0.0-6.0-0.34,25,,,,,pre trial waiting period,null,null,,,critical,d,t,c,160.6713,232.8713,164,240,240,164,trueblood,0.05,h,164,240,240,164,160.6713,232.8713,39360,39360,37415.7294,dc,null,null,null,null,null,null,"[1,3]"
,canvas-keyboard-response,211,293736,0.0-6.0-1.34,25,,,,,clear_screen,null,null,,,critical,d,t,c,160.6713,232.8713,164,240,240,164,trueblood,0.05,h,164,240,240,164,160.6713,232.8713,39360,39360,37415.7294,dc,null,null,null,null,null,null,"[1,3]"
,canvas-keyboard-response,212,295075,0.0-6.0-2.34,25,,,,,rectangles,null,null,,,critical,d,t,c,160.6713,232.8713,164,240,240,164,trueblood,0.05,h,164,240,240,164,160.6713,232.8713,39360,39360,37415.7294,dc,null,null,null,null,null,null,"[1,3]"
,canvas-keyboard-response,213,295238,0.0-6.0-3.34,25,,,,,clear_screen,null,null,,,critical,d,t,c,160.6713,232.8713,164,240,240,164,trueblood,0.05,h,164,240,240,164,160.6713,232.8713,39360,39360,37415.7294,dc,null,null,null,null,null,null,"[1,3]"
,canvas-keyboard-response,214,295991,0.0-6.0-4.34,25,,,,,make choice,742,3,,,critical,d,t,c,160.6713,232.8713,164,240,240,164,trueblood,0.05,h,164,240,240,164,160.6713,232.8713,39360,39360,37415.7294,dc,null,null,null,null,null,null,"[1,3]"
,canvas-keyboard-response,215,296149,0.0-6.0-5.34,25,,,,,clear_screen,null,null,,,critical,d,t,c,160.6713,232.8713,164,240,240,164,trueblood,0.05,h,164,240,240,164,160.6713,232.8713,39360,39360,37415.7294,dc,null,null,null,null,null,null,"[1,3]"
,canvas-keyboard-response,216,296351,0.0-6.0-0.35,25,,,,,pre trial waiting period,null,null,,,critical,d,c,t,227.1683,158.0083,164,240,240,164,spektor,0.09,w,240,164,164,240,227.1683,158.0083,39360,39360,35894.4834,td,null,null,null,null,null,null,"[3,1]"
,canvas-keyboard-response,217,296515,0.0-6.0-1.35,25,,,,,clear_screen,null,null,,,critical,d,c,t,227.1683,158.0083,164,240,240,164,spektor,0.09,w,240,164,164,240,227.1683,158.0083,39360,39360,35894.4834,td,null,null,null,null,null,null,"[3,1]"
,canvas-keyboard-response,218,297852,0.0-6.0-2.35,25,,,,,rectangles,null,null,,,critical,d,c,t,227.1683,158.0083,164,240,240,164,spektor,0.09,w,240,164,164,240,227.1683,158.0083,39360,39360,35894.4834,td,null,null,null,null,null,null,"[3,1]"
,canvas-keyboard-response,219,298013,0.0-6.0-3.35,25,,,,,clear_screen,null,null,,,critical,d,c,t,227.1683,158.0083,164,240,240,164,spektor,0.09,w,240,164,164,240,227.1683,158.0083,39360,39360,35894.4834,td,null,null,null,null,null,null,"[3,1]"
,canvas-keyboard-response,220,299271,0.0-6.0-4.35,25,,,,,make choice,1249,1,,,critical,d,c,t,227.1683,158.0083,164,240,240,164,spektor,0.09,w,240,164,164,240,227.1683,158.0083,39360,39360,35894.4834,td,null,null,null,null,null,null,"[3,1]"
,canvas-keyboard-response,221,299430,0.0-6.0-5.35,25,,,,,clear_screen,null,null,,,critical,d,c,t,227.1683,158.0083,164,240,240,164,spektor,0.09,w,240,164,164,240,227.1683,158.0083,39360,39360,35894.4834,td,null,null,null,null,null,null,"[3,1]"
,canvas-keyboard-response,222,299631,0.0-6.0-0.36,25,,,,,pre trial waiting period,null,null,,,catch,sh,l,sw,229,168,205,248,219,197,trueblood,null,null,null,null,null,null,null,null,null,null,null,,180,200,260,200,36000,52000,"[1,2]"
,canvas-keyboard-response,223,299787,0.0-6.0-1.36,25,,,,,clear_screen,null,null,,,catch,sh,l,sw,229,168,205,248,219,197,trueblood,null,null,null,null,null,null,null,null,null,null,null,,180,200,260,200,36000,52000,"[1,2]"
,canvas-keyboard-response,224,301119,0.0-6.0-2.36,25,,,,,rectangles,null,null,,,catch,sh,l,sw,229,168,205,248,219,197,trueblood,null,null,null,null,null,null,null,null,null,null,null,,180,200,260,200,36000,52000,"[1,2]"
,canvas-keyboard-response,225,301282,0.0-6.0-3.36,25,,,,,clear_screen,null,null,,,catch,sh,l,sw,229,168,205,248,219,197,trueblood,null,null,null,null,null,null,null,null,null,null,null,,180,200,260,200,36000,52000,"[1,2]"
,canvas-keyboard-response,226,301950,0.0-6.0-4.36,25,,,,,make choice,659,2,,,catch,sh,l,sw,229,168,205,248,219,197,trueblood,null,null,null,null,null,null,null,null,null,null,null,,180,200,260,200,36000,52000,"[1,2]"
,canvas-keyboard-response,227,302119,0.0-6.0-5.36,25,,,,,clear_screen,null,null,,,catch,sh,l,sw,229,168,205,248,219,197,trueblood,null,null,null,null,null,null,null,null,null,null,null,,180,200,260,200,36000,52000,"[1,2]"
,canvas-keyboard-response,228,302320,0.0-6.0-0.37,25,,,,,pre trial waiting period,null,null,,,critical,d,c,t,158.0083,227.1683,240,164,164,240,trueblood,0.09,h,164,240,240,164,158.0083,227.1683,39360,39360,35894.4834,td,null,null,null,null,null,null,"[3,1]"
,canvas-keyboard-response,229,302482,0.0-6.0-1.37,25,,,,,clear_screen,null,null,,,critical,d,c,t,158.0083,227.1683,240,164,164,240,trueblood,0.09,h,164,240,240,164,158.0083,227.1683,39360,39360,35894.4834,td,null,null,null,null,null,null,"[3,1]"
,canvas-keyboard-response,230,303819,0.0-6.0-2.37,25,,,,,rectangles,null,null,,,critical,d,c,t,158.0083,227.1683,240,164,164,240,trueblood,0.09,h,164,240,240,164,158.0083,227.1683,39360,39360,35894.4834,td,null,null,null,null,null,null,"[3,1]"
,canvas-keyboard-response,231,303978,0.0-6.0-3.37,25,,,,,clear_screen,null,null,,,critical,d,c,t,158.0083,227.1683,240,164,164,240,trueblood,0.09,h,164,240,240,164,158.0083,227.1683,39360,39360,35894.4834,td,null,null,null,null,null,null,"[3,1]"
,canvas-keyboard-response,232,305416,0.0-6.0-4.37,25,,,,,make choice,1427,3,,,critical,d,c,t,158.0083,227.1683,240,164,164,240,trueblood,0.09,h,164,240,240,164,158.0083,227.1683,39360,39360,35894.4834,td,null,null,null,null,null,null,"[3,1]"
,canvas-keyboard-response,233,305576,0.0-6.0-5.37,25,,,,,clear_screen,null,null,,,critical,d,c,t,158.0083,227.1683,240,164,164,240,trueblood,0.09,h,164,240,240,164,158.0083,227.1683,39360,39360,35894.4834,td,null,null,null,null,null,null,"[3,1]"
,canvas-keyboard-response,234,305777,0.0-6.0-0.38,25,,,,,pre trial waiting period,null,null,,,critical,c,d,t,164,240,232.8713,160.6713,240,164,spektor,0.05,w,240,164,164,240,232.8713,160.6713,39360,39360,37415.7294,dc,null,null,null,null,null,null,"[2,1]"
,canvas-keyboard-response,235,305936,0.0-6.0-1.38,25,,,,,clear_screen,null,null,,,critical,c,d,t,164,240,232.8713,160.6713,240,164,spektor,0.05,w,240,164,164,240,232.8713,160.6713,39360,39360,37415.7294,dc,null,null,null,null,null,null,"[2,1]"
,canvas-keyboard-response,236,307272,0.0-6.0-2.38,25,,,,,rectangles,null,null,,,critical,c,d,t,164,240,232.8713,160.6713,240,164,spektor,0.05,w,240,164,164,240,232.8713,160.6713,39360,39360,37415.7294,dc,null,null,null,null,null,null,"[2,1]"
,canvas-keyboard-response,237,307435,0.0-6.0-3.38,25,,,,,clear_screen,null,null,,,critical,c,d,t,164,240,232.8713,160.6713,240,164,spektor,0.05,w,240,164,164,240,232.8713,160.6713,39360,39360,37415.7294,dc,null,null,null,null,null,null,"[2,1]"
,canvas-keyboard-response,238,307967,0.0-6.0-4.38,25,,,,,make choice,519,1,,,critical,c,d,t,164,240,232.8713,160.6713,240,164,spektor,0.05,w,240,164,164,240,232.8713,160.6713,39360,39360,37415.7294,dc,null,null,null,null,null,null,"[2,1]"
,canvas-keyboard-response,239,308127,0.0-6.0-5.38,25,,,,,clear_screen,null,null,,,critical,c,d,t,164,240,232.8713,160.6713,240,164,spektor,0.05,w,240,164,164,240,232.8713,160.6713,39360,39360,37415.7294,dc,null,null,null,null,null,null,"[2,1]"
,canvas-keyboard-response,240,308328,0.0-6.0-0.39,25,,,,,pre trial waiting period,null,null,,,catch,sh,sw,l,166,140,205,174,226,184,spektor,null,null,null,null,null,null,null,null,null,null,null,,180,200,260,200,36000,52000,"[1,3]"
,canvas-keyboard-response,241,308494,0.0-6.0-1.39,25,,,,,clear_screen,null,null,,,catch,sh,sw,l,166,140,205,174,226,184,spektor,null,null,null,null,null,null,null,null,null,null,null,,180,200,260,200,36000,52000,"[1,3]"
,canvas-keyboard-response,242,309829,0.0-6.0-2.39,25,,,,,rectangles,null,null,,,catch,sh,sw,l,166,140,205,174,226,184,spektor,null,null,null,null,null,null,null,null,null,null,null,,180,200,260,200,36000,52000,"[1,3]"
,canvas-keyboard-response,243,309990,0.0-6.0-3.39,25,,,,,clear_screen,null,null,,,catch,sh,sw,l,166,140,205,174,226,184,spektor,null,null,null,null,null,null,null,null,null,null,null,,180,200,260,200,36000,52000,"[1,3]"
,canvas-keyboard-response,244,310575,0.0-6.0-4.39,25,,,,,make choice,576,3,,,catch,sh,sw,l,166,140,205,174,226,184,spektor,null,null,null,null,null,null,null,null,null,null,null,,180,200,260,200,36000,52000,"[1,3]"
,canvas-keyboard-response,245,310734,0.0-6.0-5.39,25,,,,,clear_screen,null,null,,,catch,sh,sw,l,166,140,205,174,226,184,spektor,null,null,null,null,null,null,null,null,null,null,null,,180,200,260,200,36000,52000,"[1,3]"
,canvas-keyboard-response,246,310937,0.0-6.0-0.40,25,,,,,pre trial waiting period,null,null,,,critical,d,t,c,240,164,240,164,164,240,trueblood,0,w,240,164,164,240,240,164,39360,39360,39360,td,null,null,null,null,null,null,"[2,1]"
,canvas-keyboard-response,247,311099,0.0-6.0-1.40,25,,,,,clear_screen,null,null,,,critical,d,t,c,240,164,240,164,164,240,trueblood,0,w,240,164,164,240,240,164,39360,39360,39360,td,null,null,null,null,null,null,"[2,1]"
,canvas-keyboard-response,248,312435,0.0-6.0-2.40,25,,,,,rectangles,null,null,,,critical,d,t,c,240,164,240,164,164,240,trueblood,0,w,240,164,164,240,240,164,39360,39360,39360,td,null,null,null,null,null,null,"[2,1]"
,canvas-keyboard-response,249,312594,0.0-6.0-3.40,25,,,,,clear_screen,null,null,,,critical,d,t,c,240,164,240,164,164,240,trueblood,0,w,240,164,164,240,240,164,39360,39360,39360,td,null,null,null,null,null,null,"[2,1]"
,canvas-keyboard-response,250,313150,0.0-6.0-4.40,25,,,,,make choice,548,2,,,critical,d,t,c,240,164,240,164,164,240,trueblood,0,w,240,164,164,240,240,164,39360,39360,39360,td,null,null,null,null,null,null,"[2,1]"
,canvas-keyboard-response,251,313312,0.0-6.0-5.40,25,,,,,clear_screen,null,null,,,critical,d,t,c,240,164,240,164,164,240,trueblood,0,w,240,164,164,240,240,164,39360,39360,39360,td,null,null,null,null,null,null,"[2,1]"
,canvas-keyboard-response,252,313515,0.0-6.0-0.41,25,,,,,pre trial waiting period,null,null,,,critical,c,d,t,164,240,227.1683,158.0083,240,164,trueblood,0.09,w,240,164,164,240,227.1683,158.0083,39360,39360,35894.4834,td,null,null,null,null,null,null,"[3,2]"
,canvas-keyboard-response,253,313674,0.0-6.0-1.41,25,,,,,clear_screen,null,null,,,critical,c,d,t,164,240,227.1683,158.0083,240,164,trueblood,0.09,w,240,164,164,240,227.1683,158.0083,39360,39360,35894.4834,td,null,null,null,null,null,null,"[3,2]"
,canvas-keyboard-response,254,315011,0.0-6.0-2.41,25,,,,,rectangles,null,null,,,critical,c,d,t,164,240,227.1683,158.0083,240,164,trueblood,0.09,w,240,164,164,240,227.1683,158.0083,39360,39360,35894.4834,td,null,null,null,null,null,null,"[3,2]"
,canvas-keyboard-response,255,315175,0.0-6.0-3.41,25,,,,,clear_screen,null,null,,,critical,c,d,t,164,240,227.1683,158.0083,240,164,trueblood,0.09,w,240,164,164,240,227.1683,158.0083,39360,39360,35894.4834,td,null,null,null,null,null,null,"[3,2]"
,canvas-keyboard-response,256,316607,0.0-6.0-4.41,25,,,,,make choice,1420,3,,,critical,c,d,t,164,240,227.1683,158.0083,240,164,trueblood,0.09,w,240,164,164,240,227.1683,158.0083,39360,39360,35894.4834,td,null,null,null,null,null,null,"[3,2]"
,canvas-keyboard-response,257,316765,0.0-6.0-5.41,25,,,,,clear_screen,null,null,,,critical,c,d,t,164,240,227.1683,158.0083,240,164,trueblood,0.09,w,240,164,164,240,227.1683,158.0083,39360,39360,35894.4834,td,null,null,null,null,null,null,"[3,2]"
,canvas-keyboard-response,258,316967,0.0-6.0-0.42,25,,,,,pre trial waiting period,null,null,,,critical,c,d,t,240,164,154.6796,220.0396,164,240,spektor,0.14,h,164,240,240,164,154.6796,220.0396,39360,39360,34035.6388,td,null,null,null,null,null,null,"[3,2]"
,canvas-keyboard-response,259,317128,0.0-6.0-1.42,25,,,,,clear_screen,null,null,,,critical,c,d,t,240,164,154.6796,220.0396,164,240,spektor,0.14,h,164,240,240,164,154.6796,220.0396,39360,39360,34035.6388,td,null,null,null,null,null,null,"[3,2]"
,canvas-keyboard-response,260,318466,0.0-6.0-2.42,25,,,,,rectangles,null,null,,,critical,c,d,t,240,164,154.6796,220.0396,164,240,spektor,0.14,h,164,240,240,164,154.6796,220.0396,39360,39360,34035.6388,td,null,null,null,null,null,null,"[3,2]"
,canvas-keyboard-response,261,318630,0.0-6.0-3.42,25,,,,,clear_screen,null,null,,,critical,c,d,t,240,164,154.6796,220.0396,164,240,spektor,0.14,h,164,240,240,164,154.6796,220.0396,39360,39360,34035.6388,td,null,null,null,null,null,null,"[3,2]"
,canvas-keyboard-response,262,319103,0.0-6.0-4.42,25,,,,,make choice,465,3,,,critical,c,d,t,240,164,154.6796,220.0396,164,240,spektor,0.14,h,164,240,240,164,154.6796,220.0396,39360,39360,34035.6388,td,null,null,null,null,null,null,"[3,2]"
,canvas-keyboard-response,263,319264,0.0-6.0-5.42,25,,,,,clear_screen,null,null,,,critical,c,d,t,240,164,154.6796,220.0396,164,240,spektor,0.14,h,164,240,240,164,154.6796,220.0396,39360,39360,34035.6388,td,null,null,null,null,null,null,"[3,2]"
,canvas-keyboard-response,264,319467,0.0-6.0-0.43,25,,,,,pre trial waiting period,null,null,,,critical,d,c,t,162.6685,237.1485,240,164,164,240,spektor,0.02,h,164,240,240,164,162.6685,237.1485,39360,39360,38576.5967,tc,null,null,null,null,null,null,"[3,2]"
,canvas-keyboard-response,265,319626,0.0-6.0-1.43,25,,,,,clear_screen,null,null,,,critical,d,c,t,162.6685,237.1485,240,164,164,240,spektor,0.02,h,164,240,240,164,162.6685,237.1485,39360,39360,38576.5967,tc,null,null,null,null,null,null,"[3,2]"
,canvas-keyboard-response,266,320961,0.0-6.0-2.43,25,,,,,rectangles,null,null,,,critical,d,c,t,162.6685,237.1485,240,164,164,240,spektor,0.02,h,164,240,240,164,162.6685,237.1485,39360,39360,38576.5967,tc,null,null,null,null,null,null,"[3,2]"
,canvas-keyboard-response,267,321123,0.0-6.0-3.43,25,,,,,clear_screen,null,null,,,critical,d,c,t,162.6685,237.1485,240,164,164,240,spektor,0.02,h,164,240,240,164,162.6685,237.1485,39360,39360,38576.5967,tc,null,null,null,null,null,null,"[3,2]"
,canvas-keyboard-response,268,321472,0.0-6.0-4.43,25,,,,,make choice,339,3,,,critical,d,c,t,162.6685,237.1485,240,164,164,240,spektor,0.02,h,164,240,240,164,162.6685,237.1485,39360,39360,38576.5967,tc,null,null,null,null,null,null,"[3,2]"
,canvas-keyboard-response,269,321628,0.0-6.0-5.43,25,,,,,clear_screen,null,null,,,critical,d,c,t,162.6685,237.1485,240,164,164,240,spektor,0.02,h,164,240,240,164,162.6685,237.1485,39360,39360,38576.5967,tc,null,null,null,null,null,null,"[3,2]"
,canvas-keyboard-response,270,321830,0.0-6.0-0.44,25,,,,,pre trial waiting period,null,null,,,critical,d,c,t,237.1485,162.6685,164,240,240,164,spektor,0.02,w,240,164,164,240,237.1485,162.6685,39360,39360,38576.5967,td,null,null,null,null,null,null,"[3,1]"
,canvas-keyboard-response,271,321990,0.0-6.0-1.44,25,,,,,clear_screen,null,null,,,critical,d,c,t,237.1485,162.6685,164,240,240,164,spektor,0.02,w,240,164,164,240,237.1485,162.6685,39360,39360,38576.5967,td,null,null,null,null,null,null,"[3,1]"
,canvas-keyboard-response,272,323328,0.0-6.0-2.44,25,,,,,rectangles,null,null,,,critical,d,c,t,237.1485,162.6685,164,240,240,164,spektor,0.02,w,240,164,164,240,237.1485,162.6685,39360,39360,38576.5967,td,null,null,null,null,null,null,"[3,1]"
,canvas-keyboard-response,273,323492,0.0-6.0-3.44,25,,,,,clear_screen,null,null,,,critical,d,c,t,237.1485,162.6685,164,240,240,164,spektor,0.02,w,240,164,164,240,237.1485,162.6685,39360,39360,38576.5967,td,null,null,null,null,null,null,"[3,1]"
,canvas-keyboard-response,274,324103,0.0-6.0-4.44,25,,,,,make choice,600,3,,,critical,d,c,t,237.1485,162.6685,164,240,240,164,spektor,0.02,w,240,164,164,240,237.1485,162.6685,39360,39360,38576.5967,td,null,null,null,null,null,null,"[3,1]"
,canvas-keyboard-response,275,324262,0.0-6.0-5.44,25,,,,,clear_screen,null,null,,,critical,d,c,t,237.1485,162.6685,164,240,240,164,spektor,0.02,w,240,164,164,240,237.1485,162.6685,39360,39360,38576.5967,td,null,null,null,null,null,null,"[3,1]"
,canvas-keyboard-response,276,324464,0.0-6.0-0.45,25,,,,,pre trial waiting period,null,null,,,catch,sh,sw,l,163,159,189,205,243,227,trueblood,null,null,null,null,null,null,null,null,null,null,null,,180,200,260,200,36000,52000,"[1,3]"
,canvas-keyboard-response,277,324622,0.0-6.0-1.45,25,,,,,clear_screen,null,null,,,catch,sh,sw,l,163,159,189,205,243,227,trueblood,null,null,null,null,null,null,null,null,null,null,null,,180,200,260,200,36000,52000,"[1,3]"
,canvas-keyboard-response,278,325957,0.0-6.0-2.45,25,,,,,rectangles,null,null,,,catch,sh,sw,l,163,159,189,205,243,227,trueblood,null,null,null,null,null,null,null,null,null,null,null,,180,200,260,200,36000,52000,"[1,3]"
,canvas-keyboard-response,279,326118,0.0-6.0-3.45,25,,,,,clear_screen,null,null,,,catch,sh,sw,l,163,159,189,205,243,227,trueblood,null,null,null,null,null,null,null,null,null,null,null,,180,200,260,200,36000,52000,"[1,3]"
,canvas-keyboard-response,280,326622,0.0-6.0-4.45,25,,,,,make choice,496,3,,,catch,sh,sw,l,163,159,189,205,243,227,trueblood,null,null,null,null,null,null,null,null,null,null,null,,180,200,260,200,36000,52000,"[1,3]"
,canvas-keyboard-response,281,326780,0.0-6.0-5.45,25,,,,,clear_screen,null,null,,,catch,sh,sw,l,163,159,189,205,243,227,trueblood,null,null,null,null,null,null,null,null,null,null,null,,180,200,260,200,36000,52000,"[1,3]"
,canvas-keyboard-response,282,326982,0.0-6.0-0.46,25,,,,,pre trial waiting period,null,null,,,critical,d,c,t,240,164,164,240,240,164,spektor,0,w,240,164,164,240,240,164,39360,39360,39360,dc,null,null,null,null,null,null,"[1,2]"
,canvas-keyboard-response,283,327145,0.0-6.0-1.46,25,,,,,clear_screen,null,null,,,critical,d,c,t,240,164,164,240,240,164,spektor,0,w,240,164,164,240,240,164,39360,39360,39360,dc,null,null,null,null,null,null,"[1,2]"
,canvas-keyboard-response,284,328479,0.0-6.0-2.46,25,,,,,rectangles,null,null,,,critical,d,c,t,240,164,164,240,240,164,spektor,0,w,240,164,164,240,240,164,39360,39360,39360,dc,null,null,null,null,null,null,"[1,2]"
,canvas-keyboard-response,285,328639,0.0-6.0-3.46,25,,,,,clear_screen,null,null,,,critical,d,c,t,240,164,164,240,240,164,spektor,0,w,240,164,164,240,240,164,39360,39360,39360,dc,null,null,null,null,null,null,"[1,2]"
,canvas-keyboard-response,286,329694,0.0-6.0-4.46,25,,,,,make choice,1045,2,,,critical,d,c,t,240,164,164,240,240,164,spektor,0,w,240,164,164,240,240,164,39360,39360,39360,dc,null,null,null,null,null,null,"[1,2]"
,canvas-keyboard-response,287,329855,0.0-6.0-5.46,25,,,,,clear_screen,null,null,,,critical,d,c,t,240,164,164,240,240,164,spektor,0,w,240,164,164,240,240,164,39360,39360,39360,dc,null,null,null,null,null,null,"[1,2]"
,canvas-keyboard-response,288,330056,0.0-6.0-0.47,25,,,,,pre trial waiting period,null,null,,,catch,sh,sw,l,178,172,184,187,225,217,trueblood,null,null,null,null,null,null,null,null,null,null,null,,180,200,260,200,36000,52000,"[1,3]"
,canvas-keyboard-response,289,330219,0.0-6.0-1.47,25,,,,,clear_screen,null,null,,,catch,sh,sw,l,178,172,184,187,225,217,trueblood,null,null,null,null,null,null,null,null,null,null,null,,180,200,260,200,36000,52000,"[1,3]"
,canvas-keyboard-response,290,331555,0.0-6.0-2.47,25,,,,,rectangles,null,null,,,catch,sh,sw,l,178,172,184,187,225,217,trueblood,null,null,null,null,null,null,null,null,null,null,null,,180,200,260,200,36000,52000,"[1,3]"
,canvas-keyboard-response,291,331714,0.0-6.0-3.47,25,,,,,clear_screen,null,null,,,catch,sh,sw,l,178,172,184,187,225,217,trueblood,null,null,null,null,null,null,null,null,null,null,null,,180,200,260,200,36000,52000,"[1,3]"
,canvas-keyboard-response,292,332175,0.0-6.0-4.47,25,,,,,make choice,449,3,,,catch,sh,sw,l,178,172,184,187,225,217,trueblood,null,null,null,null,null,null,null,null,null,null,null,,180,200,260,200,36000,52000,"[1,3]"
,canvas-keyboard-response,293,332333,0.0-6.0-5.47,25,,,,,clear_screen,null,null,,,catch,sh,sw,l,178,172,184,187,225,217,trueblood,null,null,null,null,null,null,null,null,null,null,null,,180,200,260,200,36000,52000,"[1,3]"
,canvas-keyboard-response,294,332534,0.0-6.0-0.48,25,,,,,pre trial waiting period,null,null,,,critical,d,t,c,162.6685,237.1485,164,240,240,164,trueblood,0.02,h,164,240,240,164,162.6685,237.1485,39360,39360,38576.5967,dc,null,null,null,null,null,null,"[1,3]"
,canvas-keyboard-response,295,332697,0.0-6.0-1.48,25,,,,,clear_screen,null,null,,,critical,d,t,c,162.6685,237.1485,164,240,240,164,trueblood,0.02,h,164,240,240,164,162.6685,237.1485,39360,39360,38576.5967,dc,null,null,null,null,null,null,"[1,3]"
,canvas-keyboard-response,296,334033,0.0-6.0-2.48,25,,,,,rectangles,null,null,,,critical,d,t,c,162.6685,237.1485,164,240,240,164,trueblood,0.02,h,164,240,240,164,162.6685,237.1485,39360,39360,38576.5967,dc,null,null,null,null,null,null,"[1,3]"
,canvas-keyboard-response,297,334191,0.0-6.0-3.48,25,,,,,clear_screen,null,null,,,critical,d,t,c,162.6685,237.1485,164,240,240,164,trueblood,0.02,h,164,240,240,164,162.6685,237.1485,39360,39360,38576.5967,dc,null,null,null,null,null,null,"[1,3]"
,canvas-keyboard-response,298,334670,0.0-6.0-4.48,25,,,,,make choice,469,3,,,critical,d,t,c,162.6685,237.1485,164,240,240,164,trueblood,0.02,h,164,240,240,164,162.6685,237.1485,39360,39360,38576.5967,dc,null,null,null,null,null,null,"[1,3]"
,canvas-keyboard-response,299,334833,0.0-6.0-5.48,25,,,,,clear_screen,null,null,,,critical,d,t,c,162.6685,237.1485,164,240,240,164,trueblood,0.02,h,164,240,240,164,162.6685,237.1485,39360,39360,38576.5967,dc,null,null,null,null,null,null,"[1,3]"
,canvas-keyboard-response,300,335034,0.0-6.0-0.49,25,,,,,pre trial waiting period,null,null,,,critical,d,t,c,232.8713,160.6713,240,164,164,240,trueblood,0.05,w,240,164,164,240,232.8713,160.6713,39360,39360,37415.7294,tc,null,null,null,null,null,null,"[2,3]"
,canvas-keyboard-response,301,335197,0.0-6.0-1.49,25,,,,,clear_screen,null,null,,,critical,d,t,c,232.8713,160.6713,240,164,164,240,trueblood,0.05,w,240,164,164,240,232.8713,160.6713,39360,39360,37415.7294,tc,null,null,null,null,null,null,"[2,3]"
,canvas-keyboard-response,302,336533,0.0-6.0-2.49,25,,,,,rectangles,null,null,,,critical,d,t,c,232.8713,160.6713,240,164,164,240,trueblood,0.05,w,240,164,164,240,232.8713,160.6713,39360,39360,37415.7294,tc,null,null,null,null,null,null,"[2,3]"
,canvas-keyboard-response,303,336696,0.0-6.0-3.49,25,,,,,clear_screen,null,null,,,critical,d,t,c,232.8713,160.6713,240,164,164,240,trueblood,0.05,w,240,164,164,240,232.8713,160.6713,39360,39360,37415.7294,tc,null,null,null,null,null,null,"[2,3]"
,canvas-keyboard-response,304,337176,0.0-6.0-4.49,25,,,,,make choice,464,2,,,critical,d,t,c,232.8713,160.6713,240,164,164,240,trueblood,0.05,w,240,164,164,240,232.8713,160.6713,39360,39360,37415.7294,tc,null,null,null,null,null,null,"[2,3]"
,canvas-keyboard-response,305,337333,0.0-6.0-5.49,25,,,,,clear_screen,null,null,,,critical,d,t,c,232.8713,160.6713,240,164,164,240,trueblood,0.05,w,240,164,164,240,232.8713,160.6713,39360,39360,37415.7294,tc,null,null,null,null,null,null,"[2,3]"
,canvas-keyboard-response,306,337534,0.0-6.0-0.50,25,,,,,pre trial waiting period,null,null,,,critical,t,c,d,164,240,240,164,154.6796,220.0396,trueblood,0.14,h,164,240,240,164,154.6796,220.0396,39360,39360,34035.6388,tc,null,null,null,null,null,null,"[1,2]"
,canvas-keyboard-response,307,337694,0.0-6.0-1.50,25,,,,,clear_screen,null,null,,,critical,t,c,d,164,240,240,164,154.6796,220.0396,trueblood,0.14,h,164,240,240,164,154.6796,220.0396,39360,39360,34035.6388,tc,null,null,null,null,null,null,"[1,2]"
,canvas-keyboard-response,308,339030,0.0-6.0-2.50,25,,,,,rectangles,null,null,,,critical,t,c,d,164,240,240,164,154.6796,220.0396,trueblood,0.14,h,164,240,240,164,154.6796,220.0396,39360,39360,34035.6388,tc,null,null,null,null,null,null,"[1,2]"
,canvas-keyboard-response,309,339192,0.0-6.0-3.50,25,,,,,clear_screen,null,null,,,critical,t,c,d,164,240,240,164,154.6796,220.0396,trueblood,0.14,h,164,240,240,164,154.6796,220.0396,39360,39360,34035.6388,tc,null,null,null,null,null,null,"[1,2]"
,canvas-keyboard-response,310,339526,0.0-6.0-4.50,25,,,,,make choice,323,2,,,critical,t,c,d,164,240,240,164,154.6796,220.0396,trueblood,0.14,h,164,240,240,164,154.6796,220.0396,39360,39360,34035.6388,tc,null,null,null,null,null,null,"[1,2]"
,canvas-keyboard-response,311,339688,0.0-6.0-5.50,25,,,,,clear_screen,null,null,,,critical,t,c,d,164,240,240,164,154.6796,220.0396,trueblood,0.14,h,164,240,240,164,154.6796,220.0396,39360,39360,34035.6388,tc,null,null,null,null,null,null,"[1,2]"
,canvas-keyboard-response,312,339889,0.0-6.0-0.51,25,,,,,pre trial waiting period,null,null,,,critical,d,t,c,160.6713,232.8713,164,240,240,164,spektor,0.05,h,164,240,240,164,160.6713,232.8713,39360,39360,37415.7294,tc,null,null,null,null,null,null,"[2,3]"
,canvas-keyboard-response,313,340049,0.0-6.0-1.51,25,,,,,clear_screen,null,null,,,critical,d,t,c,160.6713,232.8713,164,240,240,164,spektor,0.05,h,164,240,240,164,160.6713,232.8713,39360,39360,37415.7294,tc,null,null,null,null,null,null,"[2,3]"
,canvas-keyboard-response,314,341388,0.0-6.0-2.51,25,,,,,rectangles,null,null,,,critical,d,t,c,160.6713,232.8713,164,240,240,164,spektor,0.05,h,164,240,240,164,160.6713,232.8713,39360,39360,37415.7294,tc,null,null,null,null,null,null,"[2,3]"
,canvas-keyboard-response,315,341549,0.0-6.0-3.51,25,,,,,clear_screen,null,null,,,critical,d,t,c,160.6713,232.8713,164,240,240,164,spektor,0.05,h,164,240,240,164,160.6713,232.8713,39360,39360,37415.7294,tc,null,null,null,null,null,null,"[2,3]"
,canvas-keyboard-response,316,342879,0.0-6.0-4.51,25,,,,,make choice,1320,2,,,critical,d,t,c,160.6713,232.8713,164,240,240,164,spektor,0.05,h,164,240,240,164,160.6713,232.8713,39360,39360,37415.7294,tc,null,null,null,null,null,null,"[2,3]"
,canvas-keyboard-response,317,343037,0.0-6.0-5.51,25,,,,,clear_screen,null,null,,,critical,d,t,c,160.6713,232.8713,164,240,240,164,spektor,0.05,h,164,240,240,164,160.6713,232.8713,39360,39360,37415.7294,tc,null,null,null,null,null,null,"[2,3]"
,canvas-keyboard-response,318,343239,0.0-6.0-0.52,25,,,,,pre trial waiting period,null,null,,,catch,l,sw,sh,172,266,183,232,212,140,spektor,null,null,null,null,null,null,null,null,null,null,null,,180,200,260,200,36000,52000,"[1,2]"
,canvas-keyboard-response,319,343399,0.0-6.0-1.52,25,,,,,clear_screen,null,null,,,catch,l,sw,sh,172,266,183,232,212,140,spektor,null,null,null,null,null,null,null,null,null,null,null,,180,200,260,200,36000,52000,"[1,2]"
,canvas-keyboard-response,320,344734,0.0-6.0-2.52,25,,,,,rectangles,null,null,,,catch,l,sw,sh,172,266,183,232,212,140,spektor,null,null,null,null,null,null,null,null,null,null,null,,180,200,260,200,36000,52000,"[1,2]"
,canvas-keyboard-response,321,344898,0.0-6.0-3.52,25,,,,,clear_screen,null,null,,,catch,l,sw,sh,172,266,183,232,212,140,spektor,null,null,null,null,null,null,null,null,null,null,null,,180,200,260,200,36000,52000,"[1,2]"
,canvas-keyboard-response,322,345463,0.0-6.0-4.52,25,,,,,make choice,556,1,,,catch,l,sw,sh,172,266,183,232,212,140,spektor,null,null,null,null,null,null,null,null,null,null,null,,180,200,260,200,36000,52000,"[1,2]"
,canvas-keyboard-response,323,345624,0.0-6.0-5.52,25,,,,,clear_screen,null,null,,,catch,l,sw,sh,172,266,183,232,212,140,spektor,null,null,null,null,null,null,null,null,null,null,null,,180,200,260,200,36000,52000,"[1,2]"
,canvas-keyboard-response,324,345827,0.0-6.0-0.53,25,,,,,pre trial waiting period,null,null,,,critical,c,d,t,164,240,237.1485,162.6685,240,164,spektor,0.02,w,240,164,164,240,237.1485,162.6685,39360,39360,38576.5967,dc,null,null,null,null,null,null,"[2,1]"
,canvas-keyboard-response,325,345988,0.0-6.0-1.53,25,,,,,clear_screen,null,null,,,critical,c,d,t,164,240,237.1485,162.6685,240,164,spektor,0.02,w,240,164,164,240,237.1485,162.6685,39360,39360,38576.5967,dc,null,null,null,null,null,null,"[2,1]"
,canvas-keyboard-response,326,347327,0.0-6.0-2.53,25,,,,,rectangles,null,null,,,critical,c,d,t,164,240,237.1485,162.6685,240,164,spektor,0.02,w,240,164,164,240,237.1485,162.6685,39360,39360,38576.5967,dc,null,null,null,null,null,null,"[2,1]"
,canvas-keyboard-response,327,347485,0.0-6.0-3.53,25,,,,,clear_screen,null,null,,,critical,c,d,t,164,240,237.1485,162.6685,240,164,spektor,0.02,w,240,164,164,240,237.1485,162.6685,39360,39360,38576.5967,dc,null,null,null,null,null,null,"[2,1]"
,canvas-keyboard-response,328,348055,0.0-6.0-4.53,25,,,,,make choice,563,1,,,critical,c,d,t,164,240,237.1485,162.6685,240,164,spektor,0.02,w,240,164,164,240,237.1485,162.6685,39360,39360,38576.5967,dc,null,null,null,null,null,null,"[2,1]"
,canvas-keyboard-response,329,348214,0.0-6.0-5.53,25,,,,,clear_screen,null,null,,,critical,c,d,t,164,240,237.1485,162.6685,240,164,spektor,0.02,w,240,164,164,240,237.1485,162.6685,39360,39360,38576.5967,dc,null,null,null,null,null,null,"[2,1]"
,canvas-keyboard-response,330,348415,0.0-6.0-0.54,25,,,,,pre trial waiting period,null,null,,,critical,c,t,d,240,164,164,240,160.6713,232.8713,spektor,0.05,h,164,240,240,164,160.6713,232.8713,39360,39360,37415.7294,dc,null,null,null,null,null,null,"[3,1]"
,canvas-keyboard-response,331,348576,0.0-6.0-1.54,25,,,,,clear_screen,null,null,,,critical,c,t,d,240,164,164,240,160.6713,232.8713,spektor,0.05,h,164,240,240,164,160.6713,232.8713,39360,39360,37415.7294,dc,null,null,null,null,null,null,"[3,1]"
,canvas-keyboard-response,332,349913,0.0-6.0-2.54,25,,,,,rectangles,null,null,,,critical,c,t,d,240,164,164,240,160.6713,232.8713,spektor,0.05,h,164,240,240,164,160.6713,232.8713,39360,39360,37415.7294,dc,null,null,null,null,null,null,"[3,1]"
,canvas-keyboard-response,333,350072,0.0-6.0-3.54,25,,,,,clear_screen,null,null,,,critical,c,t,d,240,164,164,240,160.6713,232.8713,spektor,0.05,h,164,240,240,164,160.6713,232.8713,39360,39360,37415.7294,dc,null,null,null,null,null,null,"[3,1]"
,canvas-keyboard-response,334,351815,0.0-6.0-4.54,25,,,,,make choice,1734,3,,,critical,c,t,d,240,164,164,240,160.6713,232.8713,spektor,0.05,h,164,240,240,164,160.6713,232.8713,39360,39360,37415.7294,dc,null,null,null,null,null,null,"[3,1]"
,canvas-keyboard-response,335,351977,0.0-6.0-5.54,25,,,,,clear_screen,null,null,,,critical,c,t,d,240,164,164,240,160.6713,232.8713,spektor,0.05,h,164,240,240,164,160.6713,232.8713,39360,39360,37415.7294,dc,null,null,null,null,null,null,"[3,1]"
,canvas-keyboard-response,336,352179,0.0-6.0-0.55,25,,,,,pre trial waiting period,null,null,,,critical,c,d,t,240,164,164,240,164,240,trueblood,0,h,164,240,240,164,164,240,39360,39360,39360,dc,null,null,null,null,null,null,"[2,1]"
,canvas-keyboard-response,337,352342,0.0-6.0-1.55,25,,,,,clear_screen,null,null,,,critical,c,d,t,240,164,164,240,164,240,trueblood,0,h,164,240,240,164,164,240,39360,39360,39360,dc,null,null,null,null,null,null,"[2,1]"
,canvas-keyboard-response,338,353677,0.0-6.0-2.55,25,,,,,rectangles,null,null,,,critical,c,d,t,240,164,164,240,164,240,trueblood,0,h,164,240,240,164,164,240,39360,39360,39360,dc,null,null,null,null,null,null,"[2,1]"
,canvas-keyboard-response,339,353841,0.0-6.0-3.55,25,,,,,clear_screen,null,null,,,critical,c,d,t,240,164,164,240,164,240,trueblood,0,h,164,240,240,164,164,240,39360,39360,39360,dc,null,null,null,null,null,null,"[2,1]"
,canvas-keyboard-response,340,354255,0.0-6.0-4.55,25,,,,,make choice,406,1,,,critical,c,d,t,240,164,164,240,164,240,trueblood,0,h,164,240,240,164,164,240,39360,39360,39360,dc,null,null,null,null,null,null,"[2,1]"
,canvas-keyboard-response,341,354414,0.0-6.0-5.55,25,,,,,clear_screen,null,null,,,critical,c,d,t,240,164,164,240,164,240,trueblood,0,h,164,240,240,164,164,240,39360,39360,39360,dc,null,null,null,null,null,null,"[2,1]"
,canvas-keyboard-response,342,354615,0.0-6.0-0.56,25,,,,,pre trial waiting period,null,null,,,catch,sh,l,sw,163,167,259,201,178,227,spektor,null,null,null,null,null,null,null,null,null,null,null,,180,200,260,200,36000,52000,"[2,3]"
,canvas-keyboard-response,343,354775,0.0-6.0-1.56,25,,,,,clear_screen,null,null,,,catch,sh,l,sw,163,167,259,201,178,227,spektor,null,null,null,null,null,null,null,null,null,null,null,,180,200,260,200,36000,52000,"[2,3]"
,canvas-keyboard-response,344,356111,0.0-6.0-2.56,25,,,,,rectangles,null,null,,,catch,sh,l,sw,163,167,259,201,178,227,spektor,null,null,null,null,null,null,null,null,null,null,null,,180,200,260,200,36000,52000,"[2,3]"
,canvas-keyboard-response,345,356271,0.0-6.0-3.56,25,,,,,clear_screen,null,null,,,catch,sh,l,sw,163,167,259,201,178,227,spektor,null,null,null,null,null,null,null,null,null,null,null,,180,200,260,200,36000,52000,"[2,3]"
,canvas-keyboard-response,346,356758,0.0-6.0-4.56,25,,,,,make choice,479,3,,,catch,sh,l,sw,163,167,259,201,178,227,spektor,null,null,null,null,null,null,null,null,null,null,null,,180,200,260,200,36000,52000,"[2,3]"
,canvas-keyboard-response,347,356916,0.0-6.0-5.56,25,,,,,clear_screen,null,null,,,catch,sh,l,sw,163,167,259,201,178,227,spektor,null,null,null,null,null,null,null,null,null,null,null,,180,200,260,200,36000,52000,"[2,3]"
,canvas-keyboard-response,348,357118,0.0-6.0-0.57,25,,,,,pre trial waiting period,null,null,,,catch,l,sw,sh,287,226,202,187,211,189,trueblood,null,null,null,null,null,null,null,null,null,null,null,,180,200,260,200,36000,52000,"[1,3]"
,canvas-keyboard-response,349,357281,0.0-6.0-1.57,25,,,,,clear_screen,null,null,,,catch,l,sw,sh,287,226,202,187,211,189,trueblood,null,null,null,null,null,null,null,null,null,null,null,,180,200,260,200,36000,52000,"[1,3]"
,canvas-keyboard-response,350,358617,0.0-6.0-2.57,25,,,,,rectangles,null,null,,,catch,l,sw,sh,287,226,202,187,211,189,trueblood,null,null,null,null,null,null,null,null,null,null,null,,180,200,260,200,36000,52000,"[1,3]"
,canvas-keyboard-response,351,358778,0.0-6.0-3.57,25,,,,,clear_screen,null,null,,,catch,l,sw,sh,287,226,202,187,211,189,trueblood,null,null,null,null,null,null,null,null,null,null,null,,180,200,260,200,36000,52000,"[1,3]"
,canvas-keyboard-response,352,359254,0.0-6.0-4.57,25,,,,,make choice,467,1,,,catch,l,sw,sh,287,226,202,187,211,189,trueblood,null,null,null,null,null,null,null,null,null,null,null,,180,200,260,200,36000,52000,"[1,3]"
,canvas-keyboard-response,353,359414,0.0-6.0-5.57,25,,,,,clear_screen,null,null,,,catch,l,sw,sh,287,226,202,187,211,189,trueblood,null,null,null,null,null,null,null,null,null,null,null,,180,200,260,200,36000,52000,"[1,3]"
,canvas-keyboard-response,354,359615,0.0-6.0-0.58,25,,,,,pre trial waiting period,null,null,,,catch,sw,l,sh,180,200,224,260,223,157,trueblood,null,null,null,null,null,null,null,null,null,null,null,,180,200,260,200,36000,52000,"[2,3]"
,canvas-keyboard-response,355,359775,0.0-6.0-1.58,25,,,,,clear_screen,null,null,,,catch,sw,l,sh,180,200,224,260,223,157,trueblood,null,null,null,null,null,null,null,null,null,null,null,,180,200,260,200,36000,52000,"[2,3]"
,canvas-keyboard-response,356,361111,0.0-6.0-2.58,25,,,,,rectangles,null,null,,,catch,sw,l,sh,180,200,224,260,223,157,trueblood,null,null,null,null,null,null,null,null,null,null,null,,180,200,260,200,36000,52000,"[2,3]"
,canvas-keyboard-response,357,361271,0.0-6.0-3.58,25,,,,,clear_screen,null,null,,,catch,sw,l,sh,180,200,224,260,223,157,trueblood,null,null,null,null,null,null,null,null,null,null,null,,180,200,260,200,36000,52000,"[2,3]"
,canvas-keyboard-response,358,361638,0.0-6.0-4.58,25,,,,,make choice,357,2,,,catch,sw,l,sh,180,200,224,260,223,157,trueblood,null,null,null,null,null,null,null,null,null,null,null,,180,200,260,200,36000,52000,"[2,3]"
,canvas-keyboard-response,359,361801,0.0-6.0-5.58,25,,,,,clear_screen,null,null,,,catch,sw,l,sh,180,200,224,260,223,157,trueblood,null,null,null,null,null,null,null,null,null,null,null,,180,200,260,200,36000,52000,"[2,3]"
,canvas-keyboard-response,360,362003,0.0-6.0-0.59,25,,,,,pre trial waiting period,null,null,,,critical,t,d,c,240,164,232.8713,160.6713,164,240,spektor,0.05,w,240,164,164,240,232.8713,160.6713,39360,39360,37415.7294,tc,null,null,null,null,null,null,"[1,3]"
,canvas-keyboard-response,361,362162,0.0-6.0-1.59,25,,,,,clear_screen,null,null,,,critical,t,d,c,240,164,232.8713,160.6713,164,240,spektor,0.05,w,240,164,164,240,232.8713,160.6713,39360,39360,37415.7294,tc,null,null,null,null,null,null,"[1,3]"
,canvas-keyboard-response,362,363498,0.0-6.0-2.59,25,,,,,rectangles,null,null,,,critical,t,d,c,240,164,232.8713,160.6713,164,240,spektor,0.05,w,240,164,164,240,232.8713,160.6713,39360,39360,37415.7294,tc,null,null,null,null,null,null,"[1,3]"
,canvas-keyboard-response,363,363656,0.0-6.0-3.59,25,,,,,clear_screen,null,null,,,critical,t,d,c,240,164,232.8713,160.6713,164,240,spektor,0.05,w,240,164,164,240,232.8713,160.6713,39360,39360,37415.7294,tc,null,null,null,null,null,null,"[1,3]"
,canvas-keyboard-response,364,364069,0.0-6.0-4.59,25,,,,,make choice,402,3,,,critical,t,d,c,240,164,232.8713,160.6713,164,240,spektor,0.05,w,240,164,164,240,232.8713,160.6713,39360,39360,37415.7294,tc,null,null,null,null,null,null,"[1,3]"
,canvas-keyboard-response,365,364226,0.0-6.0-5.59,25,,,,,clear_screen,null,null,,,critical,t,d,c,240,164,232.8713,160.6713,164,240,spektor,0.05,w,240,164,164,240,232.8713,160.6713,39360,39360,37415.7294,tc,null,null,null,null,null,null,"[1,3]"
,canvas-keyboard-response,366,364427,0.0-6.0-0.60,25,,,,,pre trial waiting period,null,null,,,critical,d,c,t,227.1683,158.0083,164,240,240,164,trueblood,0.09,w,240,164,164,240,227.1683,158.0083,39360,39360,35894.4834,dc,null,null,null,null,null,null,"[1,2]"
,canvas-keyboard-response,367,364590,0.0-6.0-1.60,25,,,,,clear_screen,null,null,,,critical,d,c,t,227.1683,158.0083,164,240,240,164,trueblood,0.09,w,240,164,164,240,227.1683,158.0083,39360,39360,35894.4834,dc,null,null,null,null,null,null,"[1,2]"
,canvas-keyboard-response,368,365928,0.0-6.0-2.60,25,,,,,rectangles,null,null,,,critical,d,c,t,227.1683,158.0083,164,240,240,164,trueblood,0.09,w,240,164,164,240,227.1683,158.0083,39360,39360,35894.4834,dc,null,null,null,null,null,null,"[1,2]"
,canvas-keyboard-response,369,366090,0.0-6.0-3.60,25,,,,,clear_screen,null,null,,,critical,d,c,t,227.1683,158.0083,164,240,240,164,trueblood,0.09,w,240,164,164,240,227.1683,158.0083,39360,39360,35894.4834,dc,null,null,null,null,null,null,"[1,2]"
,canvas-keyboard-response,370,368175,0.0-6.0-4.60,25,,,,,make choice,2072,2,,,critical,d,c,t,227.1683,158.0083,164,240,240,164,trueblood,0.09,w,240,164,164,240,227.1683,158.0083,39360,39360,35894.4834,dc,null,null,null,null,null,null,"[1,2]"
,canvas-keyboard-response,371,368336,0.0-6.0-5.60,25,,,,,clear_screen,null,null,,,critical,d,c,t,227.1683,158.0083,164,240,240,164,trueblood,0.09,w,240,164,164,240,227.1683,158.0083,39360,39360,35894.4834,dc,null,null,null,null,null,null,"[1,2]"
,canvas-keyboard-response,372,368536,0.0-6.0-0.61,25,,,,,pre trial waiting period,null,null,,,critical,c,t,d,164,240,240,164,240,164,trueblood,0,w,240,164,164,240,240,164,39360,39360,39360,dc,null,null,null,null,null,null,"[3,1]"
,canvas-keyboard-response,373,368695,0.0-6.0-1.61,25,,,,,clear_screen,null,null,,,critical,c,t,d,164,240,240,164,240,164,trueblood,0,w,240,164,164,240,240,164,39360,39360,39360,dc,null,null,null,null,null,null,"[3,1]"
,canvas-keyboard-response,374,370030,0.0-6.0-2.61,25,,,,,rectangles,null,null,,,critical,c,t,d,164,240,240,164,240,164,trueblood,0,w,240,164,164,240,240,164,39360,39360,39360,dc,null,null,null,null,null,null,"[3,1]"
,canvas-keyboard-response,375,370191,0.0-6.0-3.61,25,,,,,clear_screen,null,null,,,critical,c,t,d,164,240,240,164,240,164,trueblood,0,w,240,164,164,240,240,164,39360,39360,39360,dc,null,null,null,null,null,null,"[3,1]"
,canvas-keyboard-response,376,370958,0.0-6.0-4.61,25,,,,,make choice,758,1,,,critical,c,t,d,164,240,240,164,240,164,trueblood,0,w,240,164,164,240,240,164,39360,39360,39360,dc,null,null,null,null,null,null,"[3,1]"
,canvas-keyboard-response,377,371119,0.0-6.0-5.61,25,,,,,clear_screen,null,null,,,critical,c,t,d,164,240,240,164,240,164,trueblood,0,w,240,164,164,240,240,164,39360,39360,39360,dc,null,null,null,null,null,null,"[3,1]"
,canvas-keyboard-response,378,371321,0.0-6.0-0.62,25,,,,,pre trial waiting period,null,null,,,critical,d,c,t,158.0083,227.1683,240,164,164,240,spektor,0.09,h,164,240,240,164,158.0083,227.1683,39360,39360,35894.4834,td,null,null,null,null,null,null,"[3,1]"
,canvas-keyboard-response,379,371485,0.0-6.0-1.62,25,,,,,clear_screen,null,null,,,critical,d,c,t,158.0083,227.1683,240,164,164,240,spektor,0.09,h,164,240,240,164,158.0083,227.1683,39360,39360,35894.4834,td,null,null,null,null,null,null,"[3,1]"
,canvas-keyboard-response,380,372821,0.0-6.0-2.62,25,,,,,rectangles,null,null,,,critical,d,c,t,158.0083,227.1683,240,164,164,240,spektor,0.09,h,164,240,240,164,158.0083,227.1683,39360,39360,35894.4834,td,null,null,null,null,null,null,"[3,1]"
,canvas-keyboard-response,381,372984,0.0-6.0-3.62,25,,,,,clear_screen,null,null,,,critical,d,c,t,158.0083,227.1683,240,164,164,240,spektor,0.09,h,164,240,240,164,158.0083,227.1683,39360,39360,35894.4834,td,null,null,null,null,null,null,"[3,1]"
,canvas-keyboard-response,382,373503,0.0-6.0-4.62,25,,,,,make choice,508,3,,,critical,d,c,t,158.0083,227.1683,240,164,164,240,spektor,0.09,h,164,240,240,164,158.0083,227.1683,39360,39360,35894.4834,td,null,null,null,null,null,null,"[3,1]"
,canvas-keyboard-response,383,373665,0.0-6.0-5.62,25,,,,,clear_screen,null,null,,,critical,d,c,t,158.0083,227.1683,240,164,164,240,spektor,0.09,h,164,240,240,164,158.0083,227.1683,39360,39360,35894.4834,td,null,null,null,null,null,null,"[3,1]"
,canvas-keyboard-response,384,373866,0.0-6.0-0.63,25,,,,,pre trial waiting period,null,null,,,critical,t,c,d,240,164,164,240,220.0396,154.6796,spektor,0.14,w,240,164,164,240,220.0396,154.6796,39360,39360,34035.6388,dc,null,null,null,null,null,null,"[3,2]"
,canvas-keyboard-response,385,374026,0.0-6.0-1.63,25,,,,,clear_screen,null,null,,,critical,t,c,d,240,164,164,240,220.0396,154.6796,spektor,0.14,w,240,164,164,240,220.0396,154.6796,39360,39360,34035.6388,dc,null,null,null,null,null,null,"[3,2]"
,canvas-keyboard-response,386,375361,0.0-6.0-2.63,25,,,,,rectangles,null,null,,,critical,t,c,d,240,164,164,240,220.0396,154.6796,spektor,0.14,w,240,164,164,240,220.0396,154.6796,39360,39360,34035.6388,dc,null,null,null,null,null,null,"[3,2]"
,canvas-keyboard-response,387,375523,0.0-6.0-3.63,25,,,,,clear_screen,null,null,,,critical,t,c,d,240,164,164,240,220.0396,154.6796,spektor,0.14,w,240,164,164,240,220.0396,154.6796,39360,39360,34035.6388,dc,null,null,null,null,null,null,"[3,2]"
,canvas-keyboard-response,388,375919,0.0-6.0-4.63,25,,,,,make choice,383,2,,,critical,t,c,d,240,164,164,240,220.0396,154.6796,spektor,0.14,w,240,164,164,240,220.0396,154.6796,39360,39360,34035.6388,dc,null,null,null,null,null,null,"[3,2]"
,canvas-keyboard-response,389,376078,0.0-6.0-5.63,25,,,,,clear_screen,null,null,,,critical,t,c,d,240,164,164,240,220.0396,154.6796,spektor,0.14,w,240,164,164,240,220.0396,154.6796,39360,39360,34035.6388,dc,null,null,null,null,null,null,"[3,2]"
,canvas-keyboard-response,390,376280,0.0-6.0-0.64,25,,,,,pre trial waiting period,null,null,,,catch,sw,sh,l,180,200,238,140,287,165,spektor,null,null,null,null,null,null,null,null,null,null,null,,180,200,260,200,36000,52000,"[1,3]"
,canvas-keyboard-response,391,376446,0.0-6.0-1.64,25,,,,,clear_screen,null,null,,,catch,sw,sh,l,180,200,238,140,287,165,spektor,null,null,null,null,null,null,null,null,null,null,null,,180,200,260,200,36000,52000,"[1,3]"
,canvas-keyboard-response,392,377782,0.0-6.0-2.64,25,,,,,rectangles,null,null,,,catch,sw,sh,l,180,200,238,140,287,165,spektor,null,null,null,null,null,null,null,null,null,null,null,,180,200,260,200,36000,52000,"[1,3]"
,canvas-keyboard-response,393,377944,0.0-6.0-3.64,25,,,,,clear_screen,null,null,,,catch,sw,sh,l,180,200,238,140,287,165,spektor,null,null,null,null,null,null,null,null,null,null,null,,180,200,260,200,36000,52000,"[1,3]"
,canvas-keyboard-response,394,378936,0.0-6.0-4.64,25,,,,,make choice,982,3,,,catch,sw,sh,l,180,200,238,140,287,165,spektor,null,null,null,null,null,null,null,null,null,null,null,,180,200,260,200,36000,52000,"[1,3]"
,canvas-keyboard-response,395,379097,0.0-6.0-5.64,25,,,,,clear_screen,null,null,,,catch,sw,sh,l,180,200,238,140,287,165,spektor,null,null,null,null,null,null,null,null,null,null,null,,180,200,260,200,36000,52000,"[1,3]"
,canvas-keyboard-response,396,379299,0.0-6.0-0.65,25,,,,,pre trial waiting period,null,null,,,critical,d,c,t,162.6685,237.1485,240,164,164,240,trueblood,0.02,h,164,240,240,164,162.6685,237.1485,39360,39360,38576.5967,td,null,null,null,null,null,null,"[3,1]"
,canvas-keyboard-response,397,379462,0.0-6.0-1.65,25,,,,,clear_screen,null,null,,,critical,d,c,t,162.6685,237.1485,240,164,164,240,trueblood,0.02,h,164,240,240,164,162.6685,237.1485,39360,39360,38576.5967,td,null,null,null,null,null,null,"[3,1]"
,canvas-keyboard-response,398,380796,0.0-6.0-2.65,25,,,,,rectangles,null,null,,,critical,d,c,t,162.6685,237.1485,240,164,164,240,trueblood,0.02,h,164,240,240,164,162.6685,237.1485,39360,39360,38576.5967,td,null,null,null,null,null,null,"[3,1]"
,canvas-keyboard-response,399,380959,0.0-6.0-3.65,25,,,,,clear_screen,null,null,,,critical,d,c,t,162.6685,237.1485,240,164,164,240,trueblood,0.02,h,164,240,240,164,162.6685,237.1485,39360,39360,38576.5967,td,null,null,null,null,null,null,"[3,1]"
,canvas-keyboard-response,400,382125,0.0-6.0-4.65,25,,,,,make choice,1159,3,,,critical,d,c,t,162.6685,237.1485,240,164,164,240,trueblood,0.02,h,164,240,240,164,162.6685,237.1485,39360,39360,38576.5967,td,null,null,null,null,null,null,"[3,1]"
,canvas-keyboard-response,401,382281,0.0-6.0-5.65,25,,,,,clear_screen,null,null,,,critical,d,c,t,162.6685,237.1485,240,164,164,240,trueblood,0.02,h,164,240,240,164,162.6685,237.1485,39360,39360,38576.5967,td,null,null,null,null,null,null,"[3,1]"
,canvas-keyboard-response,402,382483,0.0-6.0-0.66,25,,,,,pre trial waiting period,null,null,,,catch,l,sw,sh,228,299,219,178,180,205,trueblood,null,null,null,null,null,null,null,null,null,null,null,,180,200,260,200,36000,52000,"[1,2]"
,canvas-keyboard-response,403,382642,0.0-6.0-1.66,25,,,,,clear_screen,null,null,,,catch,l,sw,sh,228,299,219,178,180,205,trueblood,null,null,null,null,null,null,null,null,null,null,null,,180,200,260,200,36000,52000,"[1,2]"
,canvas-keyboard-response,404,383978,0.0-6.0-2.66,25,,,,,rectangles,null,null,,,catch,l,sw,sh,228,299,219,178,180,205,trueblood,null,null,null,null,null,null,null,null,null,null,null,,180,200,260,200,36000,52000,"[1,2]"
,canvas-keyboard-response,405,384137,0.0-6.0-3.66,25,,,,,clear_screen,null,null,,,catch,l,sw,sh,228,299,219,178,180,205,trueblood,null,null,null,null,null,null,null,null,null,null,null,,180,200,260,200,36000,52000,"[1,2]"
,canvas-keyboard-response,406,384511,0.0-6.0-4.66,25,,,,,make choice,363,1,,,catch,l,sw,sh,228,299,219,178,180,205,trueblood,null,null,null,null,null,null,null,null,null,null,null,,180,200,260,200,36000,52000,"[1,2]"
,canvas-keyboard-response,407,384669,0.0-6.0-5.66,25,,,,,clear_screen,null,null,,,catch,l,sw,sh,228,299,219,178,180,205,trueblood,null,null,null,null,null,null,null,null,null,null,null,,180,200,260,200,36000,52000,"[1,2]"
,canvas-keyboard-response,408,384871,0.0-6.0-0.67,25,,,,,pre trial waiting period,null,null,,,critical,c,d,t,164,240,220.0396,154.6796,240,164,spektor,0.14,w,240,164,164,240,220.0396,154.6796,39360,39360,34035.6388,td,null,null,null,null,null,null,"[3,2]"
,canvas-keyboard-response,409,385030,0.0-6.0-1.67,25,,,,,clear_screen,null,null,,,critical,c,d,t,164,240,220.0396,154.6796,240,164,spektor,0.14,w,240,164,164,240,220.0396,154.6796,39360,39360,34035.6388,td,null,null,null,null,null,null,"[3,2]"
,canvas-keyboard-response,410,386364,0.0-6.0-2.67,25,,,,,rectangles,null,null,,,critical,c,d,t,164,240,220.0396,154.6796,240,164,spektor,0.14,w,240,164,164,240,220.0396,154.6796,39360,39360,34035.6388,td,null,null,null,null,null,null,"[3,2]"
,canvas-keyboard-response,411,386527,0.0-6.0-3.67,25,,,,,clear_screen,null,null,,,critical,c,d,t,164,240,220.0396,154.6796,240,164,spektor,0.14,w,240,164,164,240,220.0396,154.6796,39360,39360,34035.6388,td,null,null,null,null,null,null,"[3,2]"
,canvas-keyboard-response,412,388655,0.0-6.0-4.67,25,,,,,make choice,2116,3,,,critical,c,d,t,164,240,220.0396,154.6796,240,164,spektor,0.14,w,240,164,164,240,220.0396,154.6796,39360,39360,34035.6388,td,null,null,null,null,null,null,"[3,2]"
,canvas-keyboard-response,413,388815,0.0-6.0-5.67,25,,,,,clear_screen,null,null,,,critical,c,d,t,164,240,220.0396,154.6796,240,164,spektor,0.14,w,240,164,164,240,220.0396,154.6796,39360,39360,34035.6388,td,null,null,null,null,null,null,"[3,2]"
,canvas-keyboard-response,414,389016,0.0-6.0-0.68,25,,,,,pre trial waiting period,null,null,,,critical,t,d,c,240,164,240,164,164,240,trueblood,0,w,240,164,164,240,240,164,39360,39360,39360,tc,null,null,null,null,null,null,"[1,3]"
,canvas-keyboard-response,415,389176,0.0-6.0-1.68,25,,,,,clear_screen,null,null,,,critical,t,d,c,240,164,240,164,164,240,trueblood,0,w,240,164,164,240,240,164,39360,39360,39360,tc,null,null,null,null,null,null,"[1,3]"
,canvas-keyboard-response,416,390513,0.0-6.0-2.68,25,,,,,rectangles,null,null,,,critical,t,d,c,240,164,240,164,164,240,trueblood,0,w,240,164,164,240,240,164,39360,39360,39360,tc,null,null,null,null,null,null,"[1,3]"
,canvas-keyboard-response,417,390674,0.0-6.0-3.68,25,,,,,clear_screen,null,null,,,critical,t,d,c,240,164,240,164,164,240,trueblood,0,w,240,164,164,240,240,164,39360,39360,39360,tc,null,null,null,null,null,null,"[1,3]"
,canvas-keyboard-response,418,391286,0.0-6.0-4.68,25,,,,,make choice,602,3,,,critical,t,d,c,240,164,240,164,164,240,trueblood,0,w,240,164,164,240,240,164,39360,39360,39360,tc,null,null,null,null,null,null,"[1,3]"
,canvas-keyboard-response,419,391446,0.0-6.0-5.68,25,,,,,clear_screen,null,null,,,critical,t,d,c,240,164,240,164,164,240,trueblood,0,w,240,164,164,240,240,164,39360,39360,39360,tc,null,null,null,null,null,null,"[1,3]"
,canvas-keyboard-response,420,391648,0.0-6.0-0.69,25,,,,,pre trial waiting period,null,null,,,critical,t,c,d,164,240,240,164,154.6796,220.0396,spektor,0.14,h,164,240,240,164,154.6796,220.0396,39360,39360,34035.6388,dc,null,null,null,null,null,null,"[3,2]"
,canvas-keyboard-response,421,391809,0.0-6.0-1.69,25,,,,,clear_screen,null,null,,,critical,t,c,d,164,240,240,164,154.6796,220.0396,spektor,0.14,h,164,240,240,164,154.6796,220.0396,39360,39360,34035.6388,dc,null,null,null,null,null,null,"[3,2]"
,canvas-keyboard-response,422,393147,0.0-6.0-2.69,25,,,,,rectangles,null,null,,,critical,t,c,d,164,240,240,164,154.6796,220.0396,spektor,0.14,h,164,240,240,164,154.6796,220.0396,39360,39360,34035.6388,dc,null,null,null,null,null,null,"[3,2]"
