"success","trial_type","trial_index","time_elapsed","internal_node_id","sub_n","timeout","failed_images","failed_audio","failed_video","screen_id","rt","response","stimulus","view_history","trial","r1","r2","r3","w1","h1","w2","h2","w3","h3","display","tdd","tdo","tw","th","cw","ch","dw","dh","ta","ca","da","probe","csls","csss","clls","clss","sa","la","probe_rects"
"true","fullscreen","0","1993481","0.0-0.0","4","","","","","","","","","","","","","","","","","","","","","","","","","","","","","","","","","","","","","","",""
"true","preload","1","1993493","0.0-1.0","4","false","[]","[]","[]","img preload","","","","","","","","","","","","","","","","","","","","","","","","","","","","","","","","","",""
"","survey-html-form","2","1998234","0.0-2.0","4","","","","","enter-sub-number","4733","{""response"":""4""}","","","","","","","","","","","","","","","","","","","","","","","","","","","","","","","",""
"","image-button-response","3","2052745","0.0-3.0","4","","","","","","54444","0","consent.png","","","","","","","","","","","","","","","","","","","","","","","","","","","","","","",""
"","html-button-response","4","2063009","0.0-4.0","4","","","","","intro mssg","10261","0","<div style= ""font-size:25px;"" <p> <strong> Welcome! </strong><br> <p style=""color:#8B0000; font-size:25px;""><strong> Please do NOT exit full screen until you are done with the experiment. </strong> </p><p style=""font-size:25px;color:#8B0000;""> <strong> Your data will be lost <br> if you try to go back or refresh the page after the experiment starts. Feel free to click ""previous"" during the instructions, however.</strong> </p><br><p> <strong> Thanks in advance for your contribution to our research! </strong></p>","","","","","","","","","","","","","","","","","","","","","","","","","","","","","","",""
"","instructions","5","2111833","0.0-5.0","4","","","","","instructions","48820","","","[{""page_index"":0,""viewing_time"":7140},{""page_index"":1,""viewing_time"":11880},{""page_index"":2,""viewing_time"":5417},{""page_index"":3,""viewing_time"":11791},{""page_index"":4,""viewing_time"":4817},{""page_index"":5,""viewing_time"":2542},{""page_index"":6,""viewing_time"":3538},{""page_index"":7,""viewing_time"":1695}]","","","","","","","","","","","","","","","","","","","","","","","","","","","","","",""
"","canvas-keyboard-response","6","2112037","0.0-6.0-0.0","4","","","","","pre trial waiting period","null","null","","","catch","l","sw","sh","236","165","170","179","235","183","spektor","null","null","null","null","null","null","null","null","null","null","null","","180","200","260","200","36000","52000","[1,2]"
"","canvas-keyboard-response","7","2112201","0.0-6.0-1.0","4","","","","","clear_screen","null","null","","","catch","l","sw","sh","236","165","170","179","235","183","spektor","null","null","null","null","null","null","null","null","null","null","null","","180","200","260","200","36000","52000","[1,2]"
"","canvas-keyboard-response","8","2113539","0.0-6.0-2.0","4","","","","","rectangles","null","null","","","catch","l","sw","sh","236","165","170","179","235","183","spektor","null","null","null","null","null","null","null","null","null","null","null","","180","200","260","200","36000","52000","[1,2]"
"","canvas-keyboard-response","9","2113699","0.0-6.0-3.0","4","","","","","clear_screen","null","null","","","catch","l","sw","sh","236","165","170","179","235","183","spektor","null","null","null","null","null","null","null","null","null","null","null","","180","200","260","200","36000","52000","[1,2]"
"","canvas-keyboard-response","10","2118385","0.0-6.0-4.0","4","","","","","make choice","4671","2","","","catch","l","sw","sh","236","165","170","179","235","183","spektor","null","null","null","null","null","null","null","null","null","null","null","","180","200","260","200","36000","52000","[1,2]"
"","canvas-keyboard-response","11","2118544","0.0-6.0-5.0","4","","","","","clear_screen","null","null","","","catch","l","sw","sh","236","165","170","179","235","183","spektor","null","null","null","null","null","null","null","null","null","null","null","","180","200","260","200","36000","52000","[1,2]"
"","canvas-keyboard-response","12","2118746","0.0-6.0-0.1","4","","","","","pre trial waiting period","null","null","","","critical","c","d","t","240","164","164","240","164","240","spektor","0","h","164","240","240","164","164","240","39360","39360","39360","dc","null","null","null","null","null","null","[2,1]"
"","canvas-keyboard-response","13","2118908","0.0-6.0-1.1","4","","","","","clear_screen","null","null","","","critical","c","d","t","240","164","164","240","164","240","spektor","0","h","164","240","240","164","164","240","39360","39360","39360","dc","null","null","null","null","null","null","[2,1]"
"","canvas-keyboard-response","14","2120244","0.0-6.0-2.1","4","","","","","rectangles","null","null","","","critical","c","d","t","240","164","164","240","164","240","spektor","0","h","164","240","240","164","164","240","39360","39360","39360","dc","null","null","null","null","null","null","[2,1]"
"","canvas-keyboard-response","15","2120406","0.0-6.0-3.1","4","","","","","clear_screen","null","null","","","critical","c","d","t","240","164","164","240","164","240","spektor","0","h","164","240","240","164","164","240","39360","39360","39360","dc","null","null","null","null","null","null","[2,1]"
"","canvas-keyboard-response","16","2123657","0.0-6.0-4.1","4","","","","","make choice","3242","2","","","critical","c","d","t","240","164","164","240","164","240","spektor","0","h","164","240","240","164","164","240","39360","39360","39360","dc","null","null","null","null","null","null","[2,1]"
"","canvas-keyboard-response","17","2123819","0.0-6.0-5.1","4","","","","","clear_screen","null","null","","","critical","c","d","t","240","164","164","240","164","240","spektor","0","h","164","240","240","164","164","240","39360","39360","39360","dc","null","null","null","null","null","null","[2,1]"
"","canvas-keyboard-response","18","2124023","0.0-6.0-0.2","4","","","","","pre trial waiting period","null","null","","","catch","sh","l","sw","210","163","256","191","155","187","spektor","null","null","null","null","null","null","null","null","null","null","null","","180","200","260","200","36000","52000","[2,3]"
"","canvas-keyboard-response","19","2124187","0.0-6.0-1.2","4","","","","","clear_screen","null","null","","","catch","sh","l","sw","210","163","256","191","155","187","spektor","null","null","null","null","null","null","null","null","null","null","null","","180","200","260","200","36000","52000","[2,3]"
"","canvas-keyboard-response","20","2125524","0.0-6.0-2.2","4","","","","","rectangles","null","null","","","catch","sh","l","sw","210","163","256","191","155","187","spektor","null","null","null","null","null","null","null","null","null","null","null","","180","200","260","200","36000","52000","[2,3]"
"","canvas-keyboard-response","21","2125687","0.0-6.0-3.2","4","","","","","clear_screen","null","null","","","catch","sh","l","sw","210","163","256","191","155","187","spektor","null","null","null","null","null","null","null","null","null","null","null","","180","200","260","200","36000","52000","[2,3]"
"","canvas-keyboard-response","22","2128105","0.0-6.0-4.2","4","","","","","make choice","2410","2","","","catch","sh","l","sw","210","163","256","191","155","187","spektor","null","null","null","null","null","null","null","null","null","null","null","","180","200","260","200","36000","52000","[2,3]"
"","canvas-keyboard-response","23","2128267","0.0-6.0-5.2","4","","","","","clear_screen","null","null","","","catch","sh","l","sw","210","163","256","191","155","187","spektor","null","null","null","null","null","null","null","null","null","null","null","","180","200","260","200","36000","52000","[2,3]"
"","canvas-keyboard-response","24","2128470","0.0-6.0-0.3","4","","","","","pre trial waiting period","null","null","","","critical","d","c","t","158.0083","227.1683","240","164","164","240","spektor","0.09","h","164","240","240","164","158.0083","227.1683","39360","39360","35894.4834","td","null","null","null","null","null","null","[3,1]"
"","canvas-keyboard-response","25","2128633","0.0-6.0-1.3","4","","","","","clear_screen","null","null","","","critical","d","c","t","158.0083","227.1683","240","164","164","240","spektor","0.09","h","164","240","240","164","158.0083","227.1683","39360","39360","35894.4834","td","null","null","null","null","null","null","[3,1]"
"","canvas-keyboard-response","26","2129972","0.0-6.0-2.3","4","","","","","rectangles","null","null","","","critical","d","c","t","158.0083","227.1683","240","164","164","240","spektor","0.09","h","164","240","240","164","158.0083","227.1683","39360","39360","35894.4834","td","null","null","null","null","null","null","[3,1]"
"","canvas-keyboard-response","27","2130131","0.0-6.0-3.3","4","","","","","clear_screen","null","null","","","critical","d","c","t","158.0083","227.1683","240","164","164","240","spektor","0.09","h","164","240","240","164","158.0083","227.1683","39360","39360","35894.4834","td","null","null","null","null","null","null","[3,1]"
"","canvas-keyboard-response","28","2132039","0.0-6.0-4.3","4","","","","","make choice","1895","3","","","critical","d","c","t","158.0083","227.1683","240","164","164","240","spektor","0.09","h","164","240","240","164","158.0083","227.1683","39360","39360","35894.4834","td","null","null","null","null","null","null","[3,1]"
"","canvas-keyboard-response","29","2132195","0.0-6.0-5.3","4","","","","","clear_screen","null","null","","","critical","d","c","t","158.0083","227.1683","240","164","164","240","spektor","0.09","h","164","240","240","164","158.0083","227.1683","39360","39360","35894.4834","td","null","null","null","null","null","null","[3,1]"
"","canvas-keyboard-response","30","2132398","0.0-6.0-0.4","4","","","","","pre trial waiting period","null","null","","","critical","c","t","d","164","240","240","164","227.1683","158.0083","trueblood","0.09","w","240","164","164","240","227.1683","158.0083","39360","39360","35894.4834","dc","null","null","null","null","null","null","[3,1]"
"","canvas-keyboard-response","31","2132557","0.0-6.0-1.4","4","","","","","clear_screen","null","null","","","critical","c","t","d","164","240","240","164","227.1683","158.0083","trueblood","0.09","w","240","164","164","240","227.1683","158.0083","39360","39360","35894.4834","dc","null","null","null","null","null","null","[3,1]"
"","canvas-keyboard-response","32","2133893","0.0-6.0-2.4","4","","","","","rectangles","null","null","","","critical","c","t","d","164","240","240","164","227.1683","158.0083","trueblood","0.09","w","240","164","164","240","227.1683","158.0083","39360","39360","35894.4834","dc","null","null","null","null","null","null","[3,1]"
"","canvas-keyboard-response","33","2134050","0.0-6.0-3.4","4","","","","","clear_screen","null","null","","","critical","c","t","d","164","240","240","164","227.1683","158.0083","trueblood","0.09","w","240","164","164","240","227.1683","158.0083","39360","39360","35894.4834","dc","null","null","null","null","null","null","[3,1]"
"","canvas-keyboard-response","34","2140369","0.0-6.0-4.4","4","","","","","make choice","6312","3","","","critical","c","t","d","164","240","240","164","227.1683","158.0083","trueblood","0.09","w","240","164","164","240","227.1683","158.0083","39360","39360","35894.4834","dc","null","null","null","null","null","null","[3,1]"
"","canvas-keyboard-response","35","2140531","0.0-6.0-5.4","4","","","","","clear_screen","null","null","","","critical","c","t","d","164","240","240","164","227.1683","158.0083","trueblood","0.09","w","240","164","164","240","227.1683","158.0083","39360","39360","35894.4834","dc","null","null","null","null","null","null","[3,1]"
"","canvas-keyboard-response","36","2140731","0.0-6.0-0.5","4","","","","","pre trial waiting period","null","null","","","critical","t","c","d","164","240","240","164","164","240","spektor","0","h","164","240","240","164","164","240","39360","39360","39360","td","null","null","null","null","null","null","[1,3]"
"","canvas-keyboard-response","37","2140892","0.0-6.0-1.5","4","","","","","clear_screen","null","null","","","critical","t","c","d","164","240","240","164","164","240","spektor","0","h","164","240","240","164","164","240","39360","39360","39360","td","null","null","null","null","null","null","[1,3]"
"","canvas-keyboard-response","38","2142226","0.0-6.0-2.5","4","","","","","rectangles","null","null","","","critical","t","c","d","164","240","240","164","164","240","spektor","0","h","164","240","240","164","164","240","39360","39360","39360","td","null","null","null","null","null","null","[1,3]"
"","canvas-keyboard-response","39","2142388","0.0-6.0-3.5","4","","","","","clear_screen","null","null","","","critical","t","c","d","164","240","240","164","164","240","spektor","0","h","164","240","240","164","164","240","39360","39360","39360","td","null","null","null","null","null","null","[1,3]"
"","canvas-keyboard-response","40","2143849","0.0-6.0-4.5","4","","","","","make choice","1451","3","","","critical","t","c","d","164","240","240","164","164","240","spektor","0","h","164","240","240","164","164","240","39360","39360","39360","td","null","null","null","null","null","null","[1,3]"
"","canvas-keyboard-response","41","2144006","0.0-6.0-5.5","4","","","","","clear_screen","null","null","","","critical","t","c","d","164","240","240","164","164","240","spektor","0","h","164","240","240","164","164","240","39360","39360","39360","td","null","null","null","null","null","null","[1,3]"
"","canvas-keyboard-response","42","2144207","0.0-6.0-0.6","4","","","","","pre trial waiting period","null","null","","","critical","d","c","t","232.8713","160.6713","164","240","240","164","trueblood","0.05","w","240","164","164","240","232.8713","160.6713","39360","39360","37415.7294","tc","null","null","null","null","null","null","[3,2]"
"","canvas-keyboard-response","43","2144368","0.0-6.0-1.6","4","","","","","clear_screen","null","null","","","critical","d","c","t","232.8713","160.6713","164","240","240","164","trueblood","0.05","w","240","164","164","240","232.8713","160.6713","39360","39360","37415.7294","tc","null","null","null","null","null","null","[3,2]"
"","canvas-keyboard-response","44","2145703","0.0-6.0-2.6","4","","","","","rectangles","null","null","","","critical","d","c","t","232.8713","160.6713","164","240","240","164","trueblood","0.05","w","240","164","164","240","232.8713","160.6713","39360","39360","37415.7294","tc","null","null","null","null","null","null","[3,2]"
"","canvas-keyboard-response","45","2145864","0.0-6.0-3.6","4","","","","","clear_screen","null","null","","","critical","d","c","t","232.8713","160.6713","164","240","240","164","trueblood","0.05","w","240","164","164","240","232.8713","160.6713","39360","39360","37415.7294","tc","null","null","null","null","null","null","[3,2]"
"","canvas-keyboard-response","46","2147425","0.0-6.0-4.6","4","","","","","make choice","1552","3","","","critical","d","c","t","232.8713","160.6713","164","240","240","164","trueblood","0.05","w","240","164","164","240","232.8713","160.6713","39360","39360","37415.7294","tc","null","null","null","null","null","null","[3,2]"
"","canvas-keyboard-response","47","2147584","0.0-6.0-5.6","4","","","","","clear_screen","null","null","","","critical","d","c","t","232.8713","160.6713","164","240","240","164","trueblood","0.05","w","240","164","164","240","232.8713","160.6713","39360","39360","37415.7294","tc","null","null","null","null","null","null","[3,2]"
"","canvas-keyboard-response","48","2147787","0.0-6.0-0.7","4","","","","","pre trial waiting period","null","null","","","critical","d","t","c","237.1485","162.6685","240","164","164","240","trueblood","0.02","w","240","164","164","240","237.1485","162.6685","39360","39360","38576.5967","dc","null","null","null","null","null","null","[1,3]"
"","canvas-keyboard-response","49","2147949","0.0-6.0-1.7","4","","","","","clear_screen","null","null","","","critical","d","t","c","237.1485","162.6685","240","164","164","240","trueblood","0.02","w","240","164","164","240","237.1485","162.6685","39360","39360","38576.5967","dc","null","null","null","null","null","null","[1,3]"
"","canvas-keyboard-response","50","2149286","0.0-6.0-2.7","4","","","","","rectangles","null","null","","","critical","d","t","c","237.1485","162.6685","240","164","164","240","trueblood","0.02","w","240","164","164","240","237.1485","162.6685","39360","39360","38576.5967","dc","null","null","null","null","null","null","[1,3]"
"","canvas-keyboard-response","51","2149450","0.0-6.0-3.7","4","","","","","clear_screen","null","null","","","critical","d","t","c","237.1485","162.6685","240","164","164","240","trueblood","0.02","w","240","164","164","240","237.1485","162.6685","39360","39360","38576.5967","dc","null","null","null","null","null","null","[1,3]"
"","canvas-keyboard-response","52","2155105","0.0-6.0-4.7","4","","","","","make choice","5644","3","","","critical","d","t","c","237.1485","162.6685","240","164","164","240","trueblood","0.02","w","240","164","164","240","237.1485","162.6685","39360","39360","38576.5967","dc","null","null","null","null","null","null","[1,3]"
"","canvas-keyboard-response","53","2155266","0.0-6.0-5.7","4","","","","","clear_screen","null","null","","","critical","d","t","c","237.1485","162.6685","240","164","164","240","trueblood","0.02","w","240","164","164","240","237.1485","162.6685","39360","39360","38576.5967","dc","null","null","null","null","null","null","[1,3]"
"","canvas-keyboard-response","54","2155468","0.0-6.0-0.8","4","","","","","pre trial waiting period","null","null","","","critical","c","t","d","164","240","240","164","237.1485","162.6685","trueblood","0.02","w","240","164","164","240","237.1485","162.6685","39360","39360","38576.5967","td","null","null","null","null","null","null","[2,3]"
"","canvas-keyboard-response","55","2155626","0.0-6.0-1.8","4","","","","","clear_screen","null","null","","","critical","c","t","d","164","240","240","164","237.1485","162.6685","trueblood","0.02","w","240","164","164","240","237.1485","162.6685","39360","39360","38576.5967","td","null","null","null","null","null","null","[2,3]"
"","canvas-keyboard-response","56","2156961","0.0-6.0-2.8","4","","","","","rectangles","null","null","","","critical","c","t","d","164","240","240","164","237.1485","162.6685","trueblood","0.02","w","240","164","164","240","237.1485","162.6685","39360","39360","38576.5967","td","null","null","null","null","null","null","[2,3]"
"","canvas-keyboard-response","57","2157123","0.0-6.0-3.8","4","","","","","clear_screen","null","null","","","critical","c","t","d","164","240","240","164","237.1485","162.6685","trueblood","0.02","w","240","164","164","240","237.1485","162.6685","39360","39360","38576.5967","td","null","null","null","null","null","null","[2,3]"
"","canvas-keyboard-response","58","2158889","0.0-6.0-4.8","4","","","","","make choice","1759","2","","","critical","c","t","d","164","240","240","164","237.1485","162.6685","trueblood","0.02","w","240","164","164","240","237.1485","162.6685","39360","39360","38576.5967","td","null","null","null","null","null","null","[2,3]"
"","canvas-keyboard-response","59","2159048","0.0-6.0-5.8","4","","","","","clear_screen","null","null","","","critical","c","t","d","164","240","240","164","237.1485","162.6685","trueblood","0.02","w","240","164","164","240","237.1485","162.6685","39360","39360","38576.5967","td","null","null","null","null","null","null","[2,3]"
"","canvas-keyboard-response","60","2159248","0.0-6.0-0.9","4","","","","","pre trial waiting period","null","null","","","critical","c","t","d","240","164","164","240","162.6685","237.1485","trueblood","0.02","h","164","240","240","164","162.6685","237.1485","39360","39360","38576.5967","tc","null","null","null","null","null","null","[2,1]"
"","canvas-keyboard-response","61","2159411","0.0-6.0-1.9","4","","","","","clear_screen","null","null","","","critical","c","t","d","240","164","164","240","162.6685","237.1485","trueblood","0.02","h","164","240","240","164","162.6685","237.1485","39360","39360","38576.5967","tc","null","null","null","null","null","null","[2,1]"
"","canvas-keyboard-response","62","2160746","0.0-6.0-2.9","4","","","","","rectangles","null","null","","","critical","c","t","d","240","164","164","240","162.6685","237.1485","trueblood","0.02","h","164","240","240","164","162.6685","237.1485","39360","39360","38576.5967","tc","null","null","null","null","null","null","[2,1]"
"","canvas-keyboard-response","63","2160907","0.0-6.0-3.9","4","","","","","clear_screen","null","null","","","critical","c","t","d","240","164","164","240","162.6685","237.1485","trueblood","0.02","h","164","240","240","164","162.6685","237.1485","39360","39360","38576.5967","tc","null","null","null","null","null","null","[2,1]"
"","canvas-keyboard-response","64","2162201","0.0-6.0-4.9","4","","","","","make choice","1283","1","","","critical","c","t","d","240","164","164","240","162.6685","237.1485","trueblood","0.02","h","164","240","240","164","162.6685","237.1485","39360","39360","38576.5967","tc","null","null","null","null","null","null","[2,1]"
"","canvas-keyboard-response","65","2162359","0.0-6.0-5.9","4","","","","","clear_screen","null","null","","","critical","c","t","d","240","164","164","240","162.6685","237.1485","trueblood","0.02","h","164","240","240","164","162.6685","237.1485","39360","39360","38576.5967","tc","null","null","null","null","null","null","[2,1]"
"","canvas-keyboard-response","66","2162563","0.0-6.0-0.10","4","","","","","pre trial waiting period","null","null","","","critical","c","t","d","240","164","164","240","160.6713","232.8713","trueblood","0.05","h","164","240","240","164","160.6713","232.8713","39360","39360","37415.7294","dc","null","null","null","null","null","null","[3,1]"
"","canvas-keyboard-response","67","2162725","0.0-6.0-1.10","4","","","","","clear_screen","null","null","","","critical","c","t","d","240","164","164","240","160.6713","232.8713","trueblood","0.05","h","164","240","240","164","160.6713","232.8713","39360","39360","37415.7294","dc","null","null","null","null","null","null","[3,1]"
"","canvas-keyboard-response","68","2164062","0.0-6.0-2.10","4","","","","","rectangles","null","null","","","critical","c","t","d","240","164","164","240","160.6713","232.8713","trueblood","0.05","h","164","240","240","164","160.6713","232.8713","39360","39360","37415.7294","dc","null","null","null","null","null","null","[3,1]"
"","canvas-keyboard-response","69","2164219","0.0-6.0-3.10","4","","","","","clear_screen","null","null","","","critical","c","t","d","240","164","164","240","160.6713","232.8713","trueblood","0.05","h","164","240","240","164","160.6713","232.8713","39360","39360","37415.7294","dc","null","null","null","null","null","null","[3,1]"
"","canvas-keyboard-response","70","2165427","0.0-6.0-4.10","4","","","","","make choice","1196","1","","","critical","c","t","d","240","164","164","240","160.6713","232.8713","trueblood","0.05","h","164","240","240","164","160.6713","232.8713","39360","39360","37415.7294","dc","null","null","null","null","null","null","[3,1]"
"","canvas-keyboard-response","71","2165583","0.0-6.0-5.10","4","","","","","clear_screen","null","null","","","critical","c","t","d","240","164","164","240","160.6713","232.8713","trueblood","0.05","h","164","240","240","164","160.6713","232.8713","39360","39360","37415.7294","dc","null","null","null","null","null","null","[3,1]"
"","canvas-keyboard-response","72","2165786","0.0-6.0-0.11","4","","","","","pre trial waiting period","null","null","","","critical","c","t","d","240","164","164","240","162.6685","237.1485","spektor","0.02","h","164","240","240","164","162.6685","237.1485","39360","39360","38576.5967","tc","null","null","null","null","null","null","[2,1]"
"","canvas-keyboard-response","73","2165945","0.0-6.0-1.11","4","","","","","clear_screen","null","null","","","critical","c","t","d","240","164","164","240","162.6685","237.1485","spektor","0.02","h","164","240","240","164","162.6685","237.1485","39360","39360","38576.5967","tc","null","null","null","null","null","null","[2,1]"
"","canvas-keyboard-response","74","2167282","0.0-6.0-2.11","4","","","","","rectangles","null","null","","","critical","c","t","d","240","164","164","240","162.6685","237.1485","spektor","0.02","h","164","240","240","164","162.6685","237.1485","39360","39360","38576.5967","tc","null","null","null","null","null","null","[2,1]"
"","canvas-keyboard-response","75","2167444","0.0-6.0-3.11","4","","","","","clear_screen","null","null","","","critical","c","t","d","240","164","164","240","162.6685","237.1485","spektor","0.02","h","164","240","240","164","162.6685","237.1485","39360","39360","38576.5967","tc","null","null","null","null","null","null","[2,1]"
"","canvas-keyboard-response","76","2168794","0.0-6.0-4.11","4","","","","","make choice","1341","2","","","critical","c","t","d","240","164","164","240","162.6685","237.1485","spektor","0.02","h","164","240","240","164","162.6685","237.1485","39360","39360","38576.5967","tc","null","null","null","null","null","null","[2,1]"
"","canvas-keyboard-response","77","2168953","0.0-6.0-5.11","4","","","","","clear_screen","null","null","","","critical","c","t","d","240","164","164","240","162.6685","237.1485","spektor","0.02","h","164","240","240","164","162.6685","237.1485","39360","39360","38576.5967","tc","null","null","null","null","null","null","[2,1]"
"","canvas-keyboard-response","78","2169155","0.0-6.0-0.12","4","","","","","pre trial waiting period","null","null","","","catch","sh","l","sw","207","141","280","185","191","227","trueblood","null","null","null","null","null","null","null","null","null","null","null","","180","200","260","200","36000","52000","[2,3]"
"","canvas-keyboard-response","79","2169314","0.0-6.0-1.12","4","","","","","clear_screen","null","null","","","catch","sh","l","sw","207","141","280","185","191","227","trueblood","null","null","null","null","null","null","null","null","null","null","null","","180","200","260","200","36000","52000","[2,3]"
"","canvas-keyboard-response","80","2170649","0.0-6.0-2.12","4","","","","","rectangles","null","null","","","catch","sh","l","sw","207","141","280","185","191","227","trueblood","null","null","null","null","null","null","null","null","null","null","null","","180","200","260","200","36000","52000","[2,3]"
"","canvas-keyboard-response","81","2170808","0.0-6.0-3.12","4","","","","","clear_screen","null","null","","","catch","sh","l","sw","207","141","280","185","191","227","trueblood","null","null","null","null","null","null","null","null","null","null","null","","180","200","260","200","36000","52000","[2,3]"
"","canvas-keyboard-response","82","2172841","0.0-6.0-4.12","4","","","","","make choice","2020","2","","","catch","sh","l","sw","207","141","280","185","191","227","trueblood","null","null","null","null","null","null","null","null","null","null","null","","180","200","260","200","36000","52000","[2,3]"
"","canvas-keyboard-response","83","2173003","0.0-6.0-5.12","4","","","","","clear_screen","null","null","","","catch","sh","l","sw","207","141","280","185","191","227","trueblood","null","null","null","null","null","null","null","null","null","null","null","","180","200","260","200","36000","52000","[2,3]"
"","canvas-keyboard-response","84","2173204","0.0-6.0-0.13","4","","","","","pre trial waiting period","null","null","","","critical","c","t","d","164","240","240","164","220.0396","154.6796","spektor","0.14","w","240","164","164","240","220.0396","154.6796","39360","39360","34035.6388","tc","null","null","null","null","null","null","[2,1]"
"","canvas-keyboard-response","85","2173364","0.0-6.0-1.13","4","","","","","clear_screen","null","null","","","critical","c","t","d","164","240","240","164","220.0396","154.6796","spektor","0.14","w","240","164","164","240","220.0396","154.6796","39360","39360","34035.6388","tc","null","null","null","null","null","null","[2,1]"
"","canvas-keyboard-response","86","2174702","0.0-6.0-2.13","4","","","","","rectangles","null","null","","","critical","c","t","d","164","240","240","164","220.0396","154.6796","spektor","0.14","w","240","164","164","240","220.0396","154.6796","39360","39360","34035.6388","tc","null","null","null","null","null","null","[2,1]"
"","canvas-keyboard-response","87","2174862","0.0-6.0-3.13","4","","","","","clear_screen","null","null","","","critical","c","t","d","164","240","240","164","220.0396","154.6796","spektor","0.14","w","240","164","164","240","220.0396","154.6796","39360","39360","34035.6388","tc","null","null","null","null","null","null","[2,1]"
"","canvas-keyboard-response","88","2176137","0.0-6.0-4.13","4","","","","","make choice","1265","1","","","critical","c","t","d","164","240","240","164","220.0396","154.6796","spektor","0.14","w","240","164","164","240","220.0396","154.6796","39360","39360","34035.6388","tc","null","null","null","null","null","null","[2,1]"
"","canvas-keyboard-response","89","2176295","0.0-6.0-5.13","4","","","","","clear_screen","null","null","","","critical","c","t","d","164","240","240","164","220.0396","154.6796","spektor","0.14","w","240","164","164","240","220.0396","154.6796","39360","39360","34035.6388","tc","null","null","null","null","null","null","[2,1]"
"","canvas-keyboard-response","90","2176497","0.0-6.0-0.14","4","","","","","pre trial waiting period","null","null","","","critical","d","t","c","237.1485","162.6685","240","164","164","240","spektor","0.02","w","240","164","164","240","237.1485","162.6685","39360","39360","38576.5967","tc","null","null","null","null","null","null","[2,3]"
"","canvas-keyboard-response","91","2176658","0.0-6.0-1.14","4","","","","","clear_screen","null","null","","","critical","d","t","c","237.1485","162.6685","240","164","164","240","spektor","0.02","w","240","164","164","240","237.1485","162.6685","39360","39360","38576.5967","tc","null","null","null","null","null","null","[2,3]"
"","canvas-keyboard-response","92","2177995","0.0-6.0-2.14","4","","","","","rectangles","null","null","","","critical","d","t","c","237.1485","162.6685","240","164","164","240","spektor","0.02","w","240","164","164","240","237.1485","162.6685","39360","39360","38576.5967","tc","null","null","null","null","null","null","[2,3]"
"","canvas-keyboard-response","93","2178155","0.0-6.0-3.14","4","","","","","clear_screen","null","null","","","critical","d","t","c","237.1485","162.6685","240","164","164","240","spektor","0.02","w","240","164","164","240","237.1485","162.6685","39360","39360","38576.5967","tc","null","null","null","null","null","null","[2,3]"
"","canvas-keyboard-response","94","2179361","0.0-6.0-4.14","4","","","","","make choice","1195","3","","","critical","d","t","c","237.1485","162.6685","240","164","164","240","spektor","0.02","w","240","164","164","240","237.1485","162.6685","39360","39360","38576.5967","tc","null","null","null","null","null","null","[2,3]"
"","canvas-keyboard-response","95","2179518","0.0-6.0-5.14","4","","","","","clear_screen","null","null","","","critical","d","t","c","237.1485","162.6685","240","164","164","240","spektor","0.02","w","240","164","164","240","237.1485","162.6685","39360","39360","38576.5967","tc","null","null","null","null","null","null","[2,3]"
"","canvas-keyboard-response","96","2179721","0.0-6.0-0.15","4","","","","","pre trial waiting period","null","null","","","critical","c","t","d","240","164","164","240","164","240","spektor","0","h","164","240","240","164","164","240","39360","39360","39360","tc","null","null","null","null","null","null","[2,1]"
"","canvas-keyboard-response","97","2179881","0.0-6.0-1.15","4","","","","","clear_screen","null","null","","","critical","c","t","d","240","164","164","240","164","240","spektor","0","h","164","240","240","164","164","240","39360","39360","39360","tc","null","null","null","null","null","null","[2,1]"
"","canvas-keyboard-response","98","2181218","0.0-6.0-2.15","4","","","","","rectangles","null","null","","","critical","c","t","d","240","164","164","240","164","240","spektor","0","h","164","240","240","164","164","240","39360","39360","39360","tc","null","null","null","null","null","null","[2,1]"
"","canvas-keyboard-response","99","2181380","0.0-6.0-3.15","4","","","","","clear_screen","null","null","","","critical","c","t","d","240","164","164","240","164","240","spektor","0","h","164","240","240","164","164","240","39360","39360","39360","tc","null","null","null","null","null","null","[2,1]"
"","canvas-keyboard-response","100","2182809","0.0-6.0-4.15","4","","","","","make choice","1421","2","","","critical","c","t","d","240","164","164","240","164","240","spektor","0","h","164","240","240","164","164","240","39360","39360","39360","tc","null","null","null","null","null","null","[2,1]"
"","canvas-keyboard-response","101","2182968","0.0-6.0-5.15","4","","","","","clear_screen","null","null","","","critical","c","t","d","240","164","164","240","164","240","spektor","0","h","164","240","240","164","164","240","39360","39360","39360","tc","null","null","null","null","null","null","[2,1]"
"","canvas-keyboard-response","102","2183170","0.0-6.0-0.16","4","","","","","pre trial waiting period","null","null","","","catch","l","sh","sw","230","165","208","160","192","220","trueblood","null","null","null","null","null","null","null","null","null","null","null","","180","200","260","200","36000","52000","[1,3]"
"","canvas-keyboard-response","103","2183330","0.0-6.0-1.16","4","","","","","clear_screen","null","null","","","catch","l","sh","sw","230","165","208","160","192","220","trueblood","null","null","null","null","null","null","null","null","null","null","null","","180","200","260","200","36000","52000","[1,3]"
"","canvas-keyboard-response","104","2184667","0.0-6.0-2.16","4","","","","","rectangles","null","null","","","catch","l","sh","sw","230","165","208","160","192","220","trueblood","null","null","null","null","null","null","null","null","null","null","null","","180","200","260","200","36000","52000","[1,3]"
"","canvas-keyboard-response","105","2184827","0.0-6.0-3.16","4","","","","","clear_screen","null","null","","","catch","l","sh","sw","230","165","208","160","192","220","trueblood","null","null","null","null","null","null","null","null","null","null","null","","180","200","260","200","36000","52000","[1,3]"
"","canvas-keyboard-response","106","2185865","0.0-6.0-4.16","4","","","","","make choice","1025","3","","","catch","l","sh","sw","230","165","208","160","192","220","trueblood","null","null","null","null","null","null","null","null","null","null","null","","180","200","260","200","36000","52000","[1,3]"
"","canvas-keyboard-response","107","2186022","0.0-6.0-5.16","4","","","","","clear_screen","null","null","","","catch","l","sh","sw","230","165","208","160","192","220","trueblood","null","null","null","null","null","null","null","null","null","null","null","","180","200","260","200","36000","52000","[1,3]"
"","canvas-keyboard-response","108","2186224","0.0-6.0-0.17","4","","","","","pre trial waiting period","null","null","","","critical","t","d","c","164","240","164","240","240","164","trueblood","0","h","164","240","240","164","164","240","39360","39360","39360","tc","null","null","null","null","null","null","[1,3]"
"","canvas-keyboard-response","109","2186384","0.0-6.0-1.17","4","","","","","clear_screen","null","null","","","critical","t","d","c","164","240","164","240","240","164","trueblood","0","h","164","240","240","164","164","240","39360","39360","39360","tc","null","null","null","null","null","null","[1,3]"
"","canvas-keyboard-response","110","2187722","0.0-6.0-2.17","4","","","","","rectangles","null","null","","","critical","t","d","c","164","240","164","240","240","164","trueblood","0","h","164","240","240","164","164","240","39360","39360","39360","tc","null","null","null","null","null","null","[1,3]"
"","canvas-keyboard-response","111","2187882","0.0-6.0-3.17","4","","","","","clear_screen","null","null","","","critical","t","d","c","164","240","164","240","240","164","trueblood","0","h","164","240","240","164","164","240","39360","39360","39360","tc","null","null","null","null","null","null","[1,3]"
"","canvas-keyboard-response","112","2188889","0.0-6.0-4.17","4","","","","","make choice","998","3","","","critical","t","d","c","164","240","164","240","240","164","trueblood","0","h","164","240","240","164","164","240","39360","39360","39360","tc","null","null","null","null","null","null","[1,3]"
"","canvas-keyboard-response","113","2189051","0.0-6.0-5.17","4","","","","","clear_screen","null","null","","","critical","t","d","c","164","240","164","240","240","164","trueblood","0","h","164","240","240","164","164","240","39360","39360","39360","tc","null","null","null","null","null","null","[1,3]"
"","canvas-keyboard-response","114","2189253","0.0-6.0-0.18","4","","","","","pre trial waiting period","null","null","","","catch","sw","l","sh","180","200","248","207","224","172","trueblood","null","null","null","null","null","null","null","null","null","null","null","","180","200","260","200","36000","52000","[2,3]"
"","canvas-keyboard-response","115","2189414","0.0-6.0-1.18","4","","","","","clear_screen","null","null","","","catch","sw","l","sh","180","200","248","207","224","172","trueblood","null","null","null","null","null","null","null","null","null","null","null","","180","200","260","200","36000","52000","[2,3]"
"","canvas-keyboard-response","116","2190754","0.0-6.0-2.18","4","","","","","rectangles","null","null","","","catch","sw","l","sh","180","200","248","207","224","172","trueblood","null","null","null","null","null","null","null","null","null","null","null","","180","200","260","200","36000","52000","[2,3]"
"","canvas-keyboard-response","117","2190914","0.0-6.0-3.18","4","","","","","clear_screen","null","null","","","catch","sw","l","sh","180","200","248","207","224","172","trueblood","null","null","null","null","null","null","null","null","null","null","null","","180","200","260","200","36000","52000","[2,3]"
"","canvas-keyboard-response","118","2192136","0.0-6.0-4.18","4","","","","","make choice","1212","2","","","catch","sw","l","sh","180","200","248","207","224","172","trueblood","null","null","null","null","null","null","null","null","null","null","null","","180","200","260","200","36000","52000","[2,3]"
"","canvas-keyboard-response","119","2192299","0.0-6.0-5.18","4","","","","","clear_screen","null","null","","","catch","sw","l","sh","180","200","248","207","224","172","trueblood","null","null","null","null","null","null","null","null","null","null","null","","180","200","260","200","36000","52000","[2,3]"
"","canvas-keyboard-response","120","2192501","0.0-6.0-0.19","4","","","","","pre trial waiting period","null","null","","","critical","d","c","t","220.0396","154.6796","164","240","240","164","spektor","0.14","w","240","164","164","240","220.0396","154.6796","39360","39360","34035.6388","td","null","null","null","null","null","null","[3,1]"
"","canvas-keyboard-response","121","2192664","0.0-6.0-1.19","4","","","","","clear_screen","null","null","","","critical","d","c","t","220.0396","154.6796","164","240","240","164","spektor","0.14","w","240","164","164","240","220.0396","154.6796","39360","39360","34035.6388","td","null","null","null","null","null","null","[3,1]"
"","canvas-keyboard-response","122","2194000","0.0-6.0-2.19","4","","","","","rectangles","null","null","","","critical","d","c","t","220.0396","154.6796","164","240","240","164","spektor","0.14","w","240","164","164","240","220.0396","154.6796","39360","39360","34035.6388","td","null","null","null","null","null","null","[3,1]"
"","canvas-keyboard-response","123","2194162","0.0-6.0-3.19","4","","","","","clear_screen","null","null","","","critical","d","c","t","220.0396","154.6796","164","240","240","164","spektor","0.14","w","240","164","164","240","220.0396","154.6796","39360","39360","34035.6388","td","null","null","null","null","null","null","[3,1]"
"","canvas-keyboard-response","124","2197697","0.0-6.0-4.19","4","","","","","make choice","3525","1","","","critical","d","c","t","220.0396","154.6796","164","240","240","164","spektor","0.14","w","240","164","164","240","220.0396","154.6796","39360","39360","34035.6388","td","null","null","null","null","null","null","[3,1]"
"","canvas-keyboard-response","125","2197855","0.0-6.0-5.19","4","","","","","clear_screen","null","null","","","critical","d","c","t","220.0396","154.6796","164","240","240","164","spektor","0.14","w","240","164","164","240","220.0396","154.6796","39360","39360","34035.6388","td","null","null","null","null","null","null","[3,1]"
"","canvas-keyboard-response","126","2198057","0.0-6.0-0.20","4","","","","","pre trial waiting period","null","null","","","critical","t","c","d","164","240","240","164","162.6685","237.1485","spektor","0.02","h","164","240","240","164","162.6685","237.1485","39360","39360","38576.5967","td","null","null","null","null","null","null","[1,3]"
"","canvas-keyboard-response","127","2198220","0.0-6.0-1.20","4","","","","","clear_screen","null","null","","","critical","t","c","d","164","240","240","164","162.6685","237.1485","spektor","0.02","h","164","240","240","164","162.6685","237.1485","39360","39360","38576.5967","td","null","null","null","null","null","null","[1,3]"
"","canvas-keyboard-response","128","2199559","0.0-6.0-2.20","4","","","","","rectangles","null","null","","","critical","t","c","d","164","240","240","164","162.6685","237.1485","spektor","0.02","h","164","240","240","164","162.6685","237.1485","39360","39360","38576.5967","td","null","null","null","null","null","null","[1,3]"
"","canvas-keyboard-response","129","2199723","0.0-6.0-3.20","4","","","","","clear_screen","null","null","","","critical","t","c","d","164","240","240","164","162.6685","237.1485","spektor","0.02","h","164","240","240","164","162.6685","237.1485","39360","39360","38576.5967","td","null","null","null","null","null","null","[1,3]"
"","canvas-keyboard-response","130","2200985","0.0-6.0-4.20","4","","","","","make choice","1254","3","","","critical","t","c","d","164","240","240","164","162.6685","237.1485","spektor","0.02","h","164","240","240","164","162.6685","237.1485","39360","39360","38576.5967","td","null","null","null","null","null","null","[1,3]"
"","canvas-keyboard-response","131","2201147","0.0-6.0-5.20","4","","","","","clear_screen","null","null","","","critical","t","c","d","164","240","240","164","162.6685","237.1485","spektor","0.02","h","164","240","240","164","162.6685","237.1485","39360","39360","38576.5967","td","null","null","null","null","null","null","[1,3]"
"","canvas-keyboard-response","132","2201349","0.0-6.0-0.21","4","","","","","pre trial waiting period","null","null","","","critical","t","d","c","240","164","240","164","164","240","spektor","0","w","240","164","164","240","240","164","39360","39360","39360","tc","null","null","null","null","null","null","[1,3]"
"","canvas-keyboard-response","133","2201510","0.0-6.0-1.21","4","","","","","clear_screen","null","null","","","critical","t","d","c","240","164","240","164","164","240","spektor","0","w","240","164","164","240","240","164","39360","39360","39360","tc","null","null","null","null","null","null","[1,3]"
"","canvas-keyboard-response","134","2202846","0.0-6.0-2.21","4","","","","","rectangles","null","null","","","critical","t","d","c","240","164","240","164","164","240","spektor","0","w","240","164","164","240","240","164","39360","39360","39360","tc","null","null","null","null","null","null","[1,3]"
"","canvas-keyboard-response","135","2203010","0.0-6.0-3.21","4","","","","","clear_screen","null","null","","","critical","t","d","c","240","164","240","164","164","240","spektor","0","w","240","164","164","240","240","164","39360","39360","39360","tc","null","null","null","null","null","null","[1,3]"
"","canvas-keyboard-response","136","2203736","0.0-6.0-4.21","4","","","","","make choice","716","3","","","critical","t","d","c","240","164","240","164","164","240","spektor","0","w","240","164","164","240","240","164","39360","39360","39360","tc","null","null","null","null","null","null","[1,3]"
"","canvas-keyboard-response","137","2203895","0.0-6.0-5.21","4","","","","","clear_screen","null","null","","","critical","t","d","c","240","164","240","164","164","240","spektor","0","w","240","164","164","240","240","164","39360","39360","39360","tc","null","null","null","null","null","null","[1,3]"
"","canvas-keyboard-response","138","2204097","0.0-6.0-0.22","4","","","","","pre trial waiting period","null","null","","","catch","sw","l","sh","180","200","197","255","171","219","spektor","null","null","null","null","null","null","null","null","null","null","null","","180","200","260","200","36000","52000","[1,2]"
"","canvas-keyboard-response","139","2204259","0.0-6.0-1.22","4","","","","","clear_screen","null","null","","","catch","sw","l","sh","180","200","197","255","171","219","spektor","null","null","null","null","null","null","null","null","null","null","null","","180","200","260","200","36000","52000","[1,2]"
"","canvas-keyboard-response","140","2205595","0.0-6.0-2.22","4","","","","","rectangles","null","null","","","catch","sw","l","sh","180","200","197","255","171","219","spektor","null","null","null","null","null","null","null","null","null","null","null","","180","200","260","200","36000","52000","[1,2]"
"","canvas-keyboard-response","141","2205755","0.0-6.0-3.22","4","","","","","clear_screen","null","null","","","catch","sw","l","sh","180","200","197","255","171","219","spektor","null","null","null","null","null","null","null","null","null","null","null","","180","200","260","200","36000","52000","[1,2]"
"","canvas-keyboard-response","142","2206849","0.0-6.0-4.22","4","","","","","make choice","1085","2","","","catch","sw","l","sh","180","200","197","255","171","219","spektor","null","null","null","null","null","null","null","null","null","null","null","","180","200","260","200","36000","52000","[1,2]"
"","canvas-keyboard-response","143","2207010","0.0-6.0-5.22","4","","","","","clear_screen","null","null","","","catch","sw","l","sh","180","200","197","255","171","219","spektor","null","null","null","null","null","null","null","null","null","null","null","","180","200","260","200","36000","52000","[1,2]"
"","canvas-keyboard-response","144","2207211","0.0-6.0-0.23","4","","","","","pre trial waiting period","null","null","","","catch","l","sh","sw","175","239","189","170","183","189","spektor","null","null","null","null","null","null","null","null","null","null","null","","180","200","260","200","36000","52000","[1,3]"
"","canvas-keyboard-response","145","2207371","0.0-6.0-1.23","4","","","","","clear_screen","null","null","","","catch","l","sh","sw","175","239","189","170","183","189","spektor","null","null","null","null","null","null","null","null","null","null","null","","180","200","260","200","36000","52000","[1,3]"
"","canvas-keyboard-response","146","2208707","0.0-6.0-2.23","4","","","","","rectangles","null","null","","","catch","l","sh","sw","175","239","189","170","183","189","spektor","null","null","null","null","null","null","null","null","null","null","null","","180","200","260","200","36000","52000","[1,3]"
"","canvas-keyboard-response","147","2208867","0.0-6.0-3.23","4","","","","","clear_screen","null","null","","","catch","l","sh","sw","175","239","189","170","183","189","spektor","null","null","null","null","null","null","null","null","null","null","null","","180","200","260","200","36000","52000","[1,3]"
"","canvas-keyboard-response","148","2209634","0.0-6.0-4.23","4","","","","","make choice","759","1","","","catch","l","sh","sw","175","239","189","170","183","189","spektor","null","null","null","null","null","null","null","null","null","null","null","","180","200","260","200","36000","52000","[1,3]"
"","canvas-keyboard-response","149","2209790","0.0-6.0-5.23","4","","","","","clear_screen","null","null","","","catch","l","sh","sw","175","239","189","170","183","189","spektor","null","null","null","null","null","null","null","null","null","null","null","","180","200","260","200","36000","52000","[1,3]"
"","canvas-keyboard-response","150","2209991","0.0-6.0-0.24","4","","","","","pre trial waiting period","null","null","","","catch","sw","sh","l","180","200","196","163","175","241","trueblood","null","null","null","null","null","null","null","null","null","null","null","","180","200","260","200","36000","52000","[1,3]"
"","canvas-keyboard-response","151","2210155","0.0-6.0-1.24","4","","","","","clear_screen","null","null","","","catch","sw","sh","l","180","200","196","163","175","241","trueblood","null","null","null","null","null","null","null","null","null","null","null","","180","200","260","200","36000","52000","[1,3]"
"","canvas-keyboard-response","152","2211492","0.0-6.0-2.24","4","","","","","rectangles","null","null","","","catch","sw","sh","l","180","200","196","163","175","241","trueblood","null","null","null","null","null","null","null","null","null","null","null","","180","200","260","200","36000","52000","[1,3]"
"","canvas-keyboard-response","153","2211653","0.0-6.0-3.24","4","","","","","clear_screen","null","null","","","catch","sw","sh","l","180","200","196","163","175","241","trueblood","null","null","null","null","null","null","null","null","null","null","null","","180","200","260","200","36000","52000","[1,3]"
"","canvas-keyboard-response","154","2212769","0.0-6.0-4.24","4","","","","","make choice","1105","3","","","catch","sw","sh","l","180","200","196","163","175","241","trueblood","null","null","null","null","null","null","null","null","null","null","null","","180","200","260","200","36000","52000","[1,3]"
"","canvas-keyboard-response","155","2212930","0.0-6.0-5.24","4","","","","","clear_screen","null","null","","","catch","sw","sh","l","180","200","196","163","175","241","trueblood","null","null","null","null","null","null","null","null","null","null","null","","180","200","260","200","36000","52000","[1,3]"
"","canvas-keyboard-response","156","2213131","0.0-6.0-0.25","4","","","","","pre trial waiting period","null","null","","","critical","c","t","d","164","240","240","164","232.8713","160.6713","trueblood","0.05","w","240","164","164","240","232.8713","160.6713","39360","39360","37415.7294","td","null","null","null","null","null","null","[2,3]"
"","canvas-keyboard-response","157","2213292","0.0-6.0-1.25","4","","","","","clear_screen","null","null","","","critical","c","t","d","164","240","240","164","232.8713","160.6713","trueblood","0.05","w","240","164","164","240","232.8713","160.6713","39360","39360","37415.7294","td","null","null","null","null","null","null","[2,3]"
"","canvas-keyboard-response","158","2214628","0.0-6.0-2.25","4","","","","","rectangles","null","null","","","critical","c","t","d","164","240","240","164","232.8713","160.6713","trueblood","0.05","w","240","164","164","240","232.8713","160.6713","39360","39360","37415.7294","td","null","null","null","null","null","null","[2,3]"
"","canvas-keyboard-response","159","2214790","0.0-6.0-3.25","4","","","","","clear_screen","null","null","","","critical","c","t","d","164","240","240","164","232.8713","160.6713","trueblood","0.05","w","240","164","164","240","232.8713","160.6713","39360","39360","37415.7294","td","null","null","null","null","null","null","[2,3]"
"","canvas-keyboard-response","160","2218545","0.0-6.0-4.25","4","","","","","make choice","3742","3","","","critical","c","t","d","164","240","240","164","232.8713","160.6713","trueblood","0.05","w","240","164","164","240","232.8713","160.6713","39360","39360","37415.7294","td","null","null","null","null","null","null","[2,3]"
"","canvas-keyboard-response","161","2218707","0.0-6.0-5.25","4","","","","","clear_screen","null","null","","","critical","c","t","d","164","240","240","164","232.8713","160.6713","trueblood","0.05","w","240","164","164","240","232.8713","160.6713","39360","39360","37415.7294","td","null","null","null","null","null","null","[2,3]"
"","canvas-keyboard-response","162","2218908","0.0-6.0-0.26","4","","","","","pre trial waiting period","null","null","","","critical","c","d","t","164","240","240","164","240","164","trueblood","0","w","240","164","164","240","240","164","39360","39360","39360","dc","null","null","null","null","null","null","[2,1]"
"","canvas-keyboard-response","163","2219069","0.0-6.0-1.26","4","","","","","clear_screen","null","null","","","critical","c","d","t","164","240","240","164","240","164","trueblood","0","w","240","164","164","240","240","164","39360","39360","39360","dc","null","null","null","null","null","null","[2,1]"
"","canvas-keyboard-response","164","2220405","0.0-6.0-2.26","4","","","","","rectangles","null","null","","","critical","c","d","t","164","240","240","164","240","164","trueblood","0","w","240","164","164","240","240","164","39360","39360","39360","dc","null","null","null","null","null","null","[2,1]"
"","canvas-keyboard-response","165","2220563","0.0-6.0-3.26","4","","","","","clear_screen","null","null","","","critical","c","d","t","164","240","240","164","240","164","trueblood","0","w","240","164","164","240","240","164","39360","39360","39360","dc","null","null","null","null","null","null","[2,1]"
"","canvas-keyboard-response","166","2221601","0.0-6.0-4.26","4","","","","","make choice","1029","2","","","critical","c","d","t","164","240","240","164","240","164","trueblood","0","w","240","164","164","240","240","164","39360","39360","39360","dc","null","null","null","null","null","null","[2,1]"
"","canvas-keyboard-response","167","2221760","0.0-6.0-5.26","4","","","","","clear_screen","null","null","","","critical","c","d","t","164","240","240","164","240","164","trueblood","0","w","240","164","164","240","240","164","39360","39360","39360","dc","null","null","null","null","null","null","[2,1]"
"","canvas-keyboard-response","168","2221962","0.0-6.0-0.27","4","","","","","pre trial waiting period","null","null","","","critical","t","d","c","240","164","232.8713","160.6713","164","240","trueblood","0.05","w","240","164","164","240","232.8713","160.6713","39360","39360","37415.7294","dc","null","null","null","null","null","null","[2,3]"
"","canvas-keyboard-response","169","2222123","0.0-6.0-1.27","4","","","","","clear_screen","null","null","","","critical","t","d","c","240","164","232.8713","160.6713","164","240","trueblood","0.05","w","240","164","164","240","232.8713","160.6713","39360","39360","37415.7294","dc","null","null","null","null","null","null","[2,3]"
"","canvas-keyboard-response","170","2223459","0.0-6.0-2.27","4","","","","","rectangles","null","null","","","critical","t","d","c","240","164","232.8713","160.6713","164","240","trueblood","0.05","w","240","164","164","240","232.8713","160.6713","39360","39360","37415.7294","dc","null","null","null","null","null","null","[2,3]"
"","canvas-keyboard-response","171","2223621","0.0-6.0-3.27","4","","","","","clear_screen","null","null","","","critical","t","d","c","240","164","232.8713","160.6713","164","240","trueblood","0.05","w","240","164","164","240","232.8713","160.6713","39360","39360","37415.7294","dc","null","null","null","null","null","null","[2,3]"
"","canvas-keyboard-response","172","2224408","0.0-6.0-4.27","4","","","","","make choice","775","2","","","critical","t","d","c","240","164","232.8713","160.6713","164","240","trueblood","0.05","w","240","164","164","240","232.8713","160.6713","39360","39360","37415.7294","dc","null","null","null","null","null","null","[2,3]"
"","canvas-keyboard-response","173","2224570","0.0-6.0-5.27","4","","","","","clear_screen","null","null","","","critical","t","d","c","240","164","232.8713","160.6713","164","240","trueblood","0.05","w","240","164","164","240","232.8713","160.6713","39360","39360","37415.7294","dc","null","null","null","null","null","null","[2,3]"
"","canvas-keyboard-response","174","2224771","0.0-6.0-0.28","4","","","","","pre trial waiting period","null","null","","","catch","l","sw","sh","288","224","201","205","226","157","trueblood","null","null","null","null","null","null","null","null","null","null","null","","180","200","260","200","36000","52000","[1,2]"
"","canvas-keyboard-response","175","2224930","0.0-6.0-1.28","4","","","","","clear_screen","null","null","","","catch","l","sw","sh","288","224","201","205","226","157","trueblood","null","null","null","null","null","null","null","null","null","null","null","","180","200","260","200","36000","52000","[1,2]"
"","canvas-keyboard-response","176","2226264","0.0-6.0-2.28","4","","","","","rectangles","null","null","","","catch","l","sw","sh","288","224","201","205","226","157","trueblood","null","null","null","null","null","null","null","null","null","null","null","","180","200","260","200","36000","52000","[1,2]"
"","canvas-keyboard-response","177","2226427","0.0-6.0-3.28","4","","","","","clear_screen","null","null","","","catch","l","sw","sh","288","224","201","205","226","157","trueblood","null","null","null","null","null","null","null","null","null","null","null","","180","200","260","200","36000","52000","[1,2]"
"","canvas-keyboard-response","178","2227433","0.0-6.0-4.28","4","","","","","make choice","993","1","","","catch","l","sw","sh","288","224","201","205","226","157","trueblood","null","null","null","null","null","null","null","null","null","null","null","","180","200","260","200","36000","52000","[1,2]"
"","canvas-keyboard-response","179","2227592","0.0-6.0-5.28","4","","","","","clear_screen","null","null","","","catch","l","sw","sh","288","224","201","205","226","157","trueblood","null","null","null","null","null","null","null","null","null","null","null","","180","200","260","200","36000","52000","[1,2]"
"","canvas-keyboard-response","180","2227793","0.0-6.0-0.29","4","","","","","pre trial waiting period","null","null","","","critical","d","c","t","240","164","164","240","240","164","spektor","0","w","240","164","164","240","240","164","39360","39360","39360","td","null","null","null","null","null","null","[3,1]"
"","canvas-keyboard-response","181","2227953","0.0-6.0-1.29","4","","","","","clear_screen","null","null","","","critical","d","c","t","240","164","164","240","240","164","spektor","0","w","240","164","164","240","240","164","39360","39360","39360","td","null","null","null","null","null","null","[3,1]"
"","canvas-keyboard-response","182","2229287","0.0-6.0-2.29","4","","","","","rectangles","null","null","","","critical","d","c","t","240","164","164","240","240","164","spektor","0","w","240","164","164","240","240","164","39360","39360","39360","td","null","null","null","null","null","null","[3,1]"
"","canvas-keyboard-response","183","2229450","0.0-6.0-3.29","4","","","","","clear_screen","null","null","","","critical","d","c","t","240","164","164","240","240","164","spektor","0","w","240","164","164","240","240","164","39360","39360","39360","td","null","null","null","null","null","null","[3,1]"
"","canvas-keyboard-response","184","2233081","0.0-6.0-4.29","4","","","","","make choice","3621","3","","","critical","d","c","t","240","164","164","240","240","164","spektor","0","w","240","164","164","240","240","164","39360","39360","39360","td","null","null","null","null","null","null","[3,1]"
"","canvas-keyboard-response","185","2233239","0.0-6.0-5.29","4","","","","","clear_screen","null","null","","","critical","d","c","t","240","164","164","240","240","164","spektor","0","w","240","164","164","240","240","164","39360","39360","39360","td","null","null","null","null","null","null","[3,1]"
"","canvas-keyboard-response","186","2233441","0.0-6.0-0.30","4","","","","","pre trial waiting period","null","null","","","catch","sw","sh","l","180","200","184","172","206","242","spektor","null","null","null","null","null","null","null","null","null","null","null","","180","200","260","200","36000","52000","[2,3]"
"","canvas-keyboard-response","187","2233601","0.0-6.0-1.30","4","","","","","clear_screen","null","null","","","catch","sw","sh","l","180","200","184","172","206","242","spektor","null","null","null","null","null","null","null","null","null","null","null","","180","200","260","200","36000","52000","[2,3]"
"","canvas-keyboard-response","188","2234939","0.0-6.0-2.30","4","","","","","rectangles","null","null","","","catch","sw","sh","l","180","200","184","172","206","242","spektor","null","null","null","null","null","null","null","null","null","null","null","","180","200","260","200","36000","52000","[2,3]"
"","canvas-keyboard-response","189","2235100","0.0-6.0-3.30","4","","","","","clear_screen","null","null","","","catch","sw","sh","l","180","200","184","172","206","242","spektor","null","null","null","null","null","null","null","null","null","null","null","","180","200","260","200","36000","52000","[2,3]"
"","canvas-keyboard-response","190","2236185","0.0-6.0-4.30","4","","","","","make choice","1074","3","","","catch","sw","sh","l","180","200","184","172","206","242","spektor","null","null","null","null","null","null","null","null","null","null","null","","180","200","260","200","36000","52000","[2,3]"
"","canvas-keyboard-response","191","2236345","0.0-6.0-5.30","4","","","","","clear_screen","null","null","","","catch","sw","sh","l","180","200","184","172","206","242","spektor","null","null","null","null","null","null","null","null","null","null","null","","180","200","260","200","36000","52000","[2,3]"
"","canvas-keyboard-response","192","2236549","0.0-6.0-0.31","4","","","","","pre trial waiting period","null","null","","","critical","t","d","c","240","164","232.8713","160.6713","164","240","spektor","0.05","w","240","164","164","240","232.8713","160.6713","39360","39360","37415.7294","tc","null","null","null","null","null","null","[1,3]"
"","canvas-keyboard-response","193","2236714","0.0-6.0-1.31","4","","","","","clear_screen","null","null","","","critical","t","d","c","240","164","232.8713","160.6713","164","240","spektor","0.05","w","240","164","164","240","232.8713","160.6713","39360","39360","37415.7294","tc","null","null","null","null","null","null","[1,3]"
"","canvas-keyboard-response","194","2238048","0.0-6.0-2.31","4","","","","","rectangles","null","null","","","critical","t","d","c","240","164","232.8713","160.6713","164","240","spektor","0.05","w","240","164","164","240","232.8713","160.6713","39360","39360","37415.7294","tc","null","null","null","null","null","null","[1,3]"
"","canvas-keyboard-response","195","2238209","0.0-6.0-3.31","4","","","","","clear_screen","null","null","","","critical","t","d","c","240","164","232.8713","160.6713","164","240","spektor","0.05","w","240","164","164","240","232.8713","160.6713","39360","39360","37415.7294","tc","null","null","null","null","null","null","[1,3]"
"","canvas-keyboard-response","196","2239570","0.0-6.0-4.31","4","","","","","make choice","1352","3","","","critical","t","d","c","240","164","232.8713","160.6713","164","240","spektor","0.05","w","240","164","164","240","232.8713","160.6713","39360","39360","37415.7294","tc","null","null","null","null","null","null","[1,3]"
"","canvas-keyboard-response","197","2239729","0.0-6.0-5.31","4","","","","","clear_screen","null","null","","","critical","t","d","c","240","164","232.8713","160.6713","164","240","spektor","0.05","w","240","164","164","240","232.8713","160.6713","39360","39360","37415.7294","tc","null","null","null","null","null","null","[1,3]"
"","canvas-keyboard-response","198","2239931","0.0-6.0-0.32","4","","","","","pre trial waiting period","null","null","","","catch","l","sw","sh","232","212","186","167","210","214","spektor","null","null","null","null","null","null","null","null","null","null","null","","180","200","260","200","36000","52000","[1,2]"
"","canvas-keyboard-response","199","2240092","0.0-6.0-1.32","4","","","","","clear_screen","null","null","","","catch","l","sw","sh","232","212","186","167","210","214","spektor","null","null","null","null","null","null","null","null","null","null","null","","180","200","260","200","36000","52000","[1,2]"
"","canvas-keyboard-response","200","2241428","0.0-6.0-2.32","4","","","","","rectangles","null","null","","","catch","l","sw","sh","232","212","186","167","210","214","spektor","null","null","null","null","null","null","null","null","null","null","null","","180","200","260","200","36000","52000","[1,2]"
"","canvas-keyboard-response","201","2241589","0.0-6.0-3.32","4","","","","","clear_screen","null","null","","","catch","l","sw","sh","232","212","186","167","210","214","spektor","null","null","null","null","null","null","null","null","null","null","null","","180","200","260","200","36000","52000","[1,2]"
"","canvas-keyboard-response","202","2242618","0.0-6.0-4.32","4","","","","","make choice","1019","1","","","catch","l","sw","sh","232","212","186","167","210","214","spektor","null","null","null","null","null","null","null","null","null","null","null","","180","200","260","200","36000","52000","[1,2]"
"","canvas-keyboard-response","203","2242776","0.0-6.0-5.32","4","","","","","clear_screen","null","null","","","catch","l","sw","sh","232","212","186","167","210","214","spektor","null","null","null","null","null","null","null","null","null","null","null","","180","200","260","200","36000","52000","[1,2]"
"","canvas-keyboard-response","204","2242978","0.0-6.0-0.33","4","","","","","pre trial waiting period","null","null","","","catch","sh","l","sw","218","167","226","182","170","188","trueblood","null","null","null","null","null","null","null","null","null","null","null","","180","200","260","200","36000","52000","[1,2]"
"","canvas-keyboard-response","205","2243136","0.0-6.0-1.33","4","","","","","clear_screen","null","null","","","catch","sh","l","sw","218","167","226","182","170","188","trueblood","null","null","null","null","null","null","null","null","null","null","null","","180","200","260","200","36000","52000","[1,2]"
"","canvas-keyboard-response","206","2244471","0.0-6.0-2.33","4","","","","","rectangles","null","null","","","catch","sh","l","sw","218","167","226","182","170","188","trueblood","null","null","null","null","null","null","null","null","null","null","null","","180","200","260","200","36000","52000","[1,2]"
"","canvas-keyboard-response","207","2244631","0.0-6.0-3.33","4","","","","","clear_screen","null","null","","","catch","sh","l","sw","218","167","226","182","170","188","trueblood","null","null","null","null","null","null","null","null","null","null","null","","180","200","260","200","36000","52000","[1,2]"
"","canvas-keyboard-response","208","2246057","0.0-6.0-4.33","4","","","","","make choice","1415","2","","","catch","sh","l","sw","218","167","226","182","170","188","trueblood","null","null","null","null","null","null","null","null","null","null","null","","180","200","260","200","36000","52000","[1,2]"
"","canvas-keyboard-response","209","2246214","0.0-6.0-5.33","4","","","","","clear_screen","null","null","","","catch","sh","l","sw","218","167","226","182","170","188","trueblood","null","null","null","null","null","null","null","null","null","null","null","","180","200","260","200","36000","52000","[1,2]"
"","canvas-keyboard-response","210","2246416","0.0-6.0-0.34","4","","","","","pre trial waiting period","null","null","","","catch","sh","sw","l","163","202","182","176","228","197","spektor","null","null","null","null","null","null","null","null","null","null","null","","180","200","260","200","36000","52000","[2,3]"
"","canvas-keyboard-response","211","2246575","0.0-6.0-1.34","4","","","","","clear_screen","null","null","","","catch","sh","sw","l","163","202","182","176","228","197","spektor","null","null","null","null","null","null","null","null","null","null","null","","180","200","260","200","36000","52000","[2,3]"
"","canvas-keyboard-response","212","2247910","0.0-6.0-2.34","4","","","","","rectangles","null","null","","","catch","sh","sw","l","163","202","182","176","228","197","spektor","null","null","null","null","null","null","null","null","null","null","null","","180","200","260","200","36000","52000","[2,3]"
"","canvas-keyboard-response","213","2248075","0.0-6.0-3.34","4","","","","","clear_screen","null","null","","","catch","sh","sw","l","163","202","182","176","228","197","spektor","null","null","null","null","null","null","null","null","null","null","null","","180","200","260","200","36000","52000","[2,3]"
"","canvas-keyboard-response","214","2249153","0.0-6.0-4.34","4","","","","","make choice","1065","3","","","catch","sh","sw","l","163","202","182","176","228","197","spektor","null","null","null","null","null","null","null","null","null","null","null","","180","200","260","200","36000","52000","[2,3]"
"","canvas-keyboard-response","215","2249313","0.0-6.0-5.34","4","","","","","clear_screen","null","null","","","catch","sh","sw","l","163","202","182","176","228","197","spektor","null","null","null","null","null","null","null","null","null","null","null","","180","200","260","200","36000","52000","[2,3]"
"","canvas-keyboard-response","216","2249515","0.0-6.0-0.35","4","","","","","pre trial waiting period","null","null","","","catch","l","sh","sw","223","212","233","208","189","211","trueblood","null","null","null","null","null","null","null","null","null","null","null","","180","200","260","200","36000","52000","[1,2]"
"","canvas-keyboard-response","217","2249679","0.0-6.0-1.35","4","","","","","clear_screen","null","null","","","catch","l","sh","sw","223","212","233","208","189","211","trueblood","null","null","null","null","null","null","null","null","null","null","null","","180","200","260","200","36000","52000","[1,2]"
"","canvas-keyboard-response","218","2251016","0.0-6.0-2.35","4","","","","","rectangles","null","null","","","catch","l","sh","sw","223","212","233","208","189","211","trueblood","null","null","null","null","null","null","null","null","null","null","null","","180","200","260","200","36000","52000","[1,2]"
"","canvas-keyboard-response","219","2251176","0.0-6.0-3.35","4","","","","","clear_screen","null","null","","","catch","l","sh","sw","223","212","233","208","189","211","trueblood","null","null","null","null","null","null","null","null","null","null","null","","180","200","260","200","36000","52000","[1,2]"
"","canvas-keyboard-response","220","2252001","0.0-6.0-4.35","4","","","","","make choice","815","2","","","catch","l","sh","sw","223","212","233","208","189","211","trueblood","null","null","null","null","null","null","null","null","null","null","null","","180","200","260","200","36000","52000","[1,2]"
"","canvas-keyboard-response","221","2252162","0.0-6.0-5.35","4","","","","","clear_screen","null","null","","","catch","l","sh","sw","223","212","233","208","189","211","trueblood","null","null","null","null","null","null","null","null","null","null","null","","180","200","260","200","36000","52000","[1,2]"
"","canvas-keyboard-response","222","2252363","0.0-6.0-0.36","4","","","","","pre trial waiting period","null","null","","","critical","t","c","d","164","240","240","164","162.6685","237.1485","trueblood","0.02","h","164","240","240","164","162.6685","237.1485","39360","39360","38576.5967","dc","null","null","null","null","null","null","[3,2]"
"","canvas-keyboard-response","223","2252527","0.0-6.0-1.36","4","","","","","clear_screen","null","null","","","critical","t","c","d","164","240","240","164","162.6685","237.1485","trueblood","0.02","h","164","240","240","164","162.6685","237.1485","39360","39360","38576.5967","dc","null","null","null","null","null","null","[3,2]"
"","canvas-keyboard-response","224","2253866","0.0-6.0-2.36","4","","","","","rectangles","null","null","","","critical","t","c","d","164","240","240","164","162.6685","237.1485","trueblood","0.02","h","164","240","240","164","162.6685","237.1485","39360","39360","38576.5967","dc","null","null","null","null","null","null","[3,2]"
"","canvas-keyboard-response","225","2254029","0.0-6.0-3.36","4","","","","","clear_screen","null","null","","","critical","t","c","d","164","240","240","164","162.6685","237.1485","trueblood","0.02","h","164","240","240","164","162.6685","237.1485","39360","39360","38576.5967","dc","null","null","null","null","null","null","[3,2]"
"","canvas-keyboard-response","226","2256689","0.0-6.0-4.36","4","","","","","make choice","2649","3","","","critical","t","c","d","164","240","240","164","162.6685","237.1485","trueblood","0.02","h","164","240","240","164","162.6685","237.1485","39360","39360","38576.5967","dc","null","null","null","null","null","null","[3,2]"
"","canvas-keyboard-response","227","2256846","0.0-6.0-5.36","4","","","","","clear_screen","null","null","","","critical","t","c","d","164","240","240","164","162.6685","237.1485","trueblood","0.02","h","164","240","240","164","162.6685","237.1485","39360","39360","38576.5967","dc","null","null","null","null","null","null","[3,2]"
"","canvas-keyboard-response","228","2257047","0.0-6.0-0.37","4","","","","","pre trial waiting period","null","null","","","catch","sw","sh","l","180","200","192","160","216","297","spektor","null","null","null","null","null","null","null","null","null","null","null","","180","200","260","200","36000","52000","[2,3]"
"","canvas-keyboard-response","229","2257208","0.0-6.0-1.37","4","","","","","clear_screen","null","null","","","catch","sw","sh","l","180","200","192","160","216","297","spektor","null","null","null","null","null","null","null","null","null","null","null","","180","200","260","200","36000","52000","[2,3]"
"","canvas-keyboard-response","230","2258545","0.0-6.0-2.37","4","","","","","rectangles","null","null","","","catch","sw","sh","l","180","200","192","160","216","297","spektor","null","null","null","null","null","null","null","null","null","null","null","","180","200","260","200","36000","52000","[2,3]"
"","canvas-keyboard-response","231","2258704","0.0-6.0-3.37","4","","","","","clear_screen","null","null","","","catch","sw","sh","l","180","200","192","160","216","297","spektor","null","null","null","null","null","null","null","null","null","null","null","","180","200","260","200","36000","52000","[2,3]"
"","canvas-keyboard-response","232","2259440","0.0-6.0-4.37","4","","","","","make choice","728","3","","","catch","sw","sh","l","180","200","192","160","216","297","spektor","null","null","null","null","null","null","null","null","null","null","null","","180","200","260","200","36000","52000","[2,3]"
"","canvas-keyboard-response","233","2259600","0.0-6.0-5.37","4","","","","","clear_screen","null","null","","","catch","sw","sh","l","180","200","192","160","216","297","spektor","null","null","null","null","null","null","null","null","null","null","null","","180","200","260","200","36000","52000","[2,3]"
"","canvas-keyboard-response","234","2259802","0.0-6.0-0.38","4","","","","","pre trial waiting period","null","null","","","catch","sw","l","sh","180","200","206","254","171","218","spektor","null","null","null","null","null","null","null","null","null","null","null","","180","200","260","200","36000","52000","[1,2]"
"","canvas-keyboard-response","235","2259961","0.0-6.0-1.38","4","","","","","clear_screen","null","null","","","catch","sw","l","sh","180","200","206","254","171","218","spektor","null","null","null","null","null","null","null","null","null","null","null","","180","200","260","200","36000","52000","[1,2]"
"","canvas-keyboard-response","236","2261297","0.0-6.0-2.38","4","","","","","rectangles","null","null","","","catch","sw","l","sh","180","200","206","254","171","218","spektor","null","null","null","null","null","null","null","null","null","null","null","","180","200","260","200","36000","52000","[1,2]"
"","canvas-keyboard-response","237","2261455","0.0-6.0-3.38","4","","","","","clear_screen","null","null","","","catch","sw","l","sh","180","200","206","254","171","218","spektor","null","null","null","null","null","null","null","null","null","null","null","","180","200","260","200","36000","52000","[1,2]"
"","canvas-keyboard-response","238","2262281","0.0-6.0-4.38","4","","","","","make choice","813","2","","","catch","sw","l","sh","180","200","206","254","171","218","spektor","null","null","null","null","null","null","null","null","null","null","null","","180","200","260","200","36000","52000","[1,2]"
"","canvas-keyboard-response","239","2262442","0.0-6.0-5.38","4","","","","","clear_screen","null","null","","","catch","sw","l","sh","180","200","206","254","171","218","spektor","null","null","null","null","null","null","null","null","null","null","null","","180","200","260","200","36000","52000","[1,2]"
"","canvas-keyboard-response","240","2262644","0.0-6.0-0.39","4","","","","","pre trial waiting period","null","null","","","critical","d","t","c","220.0396","154.6796","240","164","164","240","spektor","0.14","w","240","164","164","240","220.0396","154.6796","39360","39360","34035.6388","dc","null","null","null","null","null","null","[1,3]"
"","canvas-keyboard-response","241","2262804","0.0-6.0-1.39","4","","","","","clear_screen","null","null","","","critical","d","t","c","220.0396","154.6796","240","164","164","240","spektor","0.14","w","240","164","164","240","220.0396","154.6796","39360","39360","34035.6388","dc","null","null","null","null","null","null","[1,3]"
"","canvas-keyboard-response","242","2264143","0.0-6.0-2.39","4","","","","","rectangles","null","null","","","critical","d","t","c","220.0396","154.6796","240","164","164","240","spektor","0.14","w","240","164","164","240","220.0396","154.6796","39360","39360","34035.6388","dc","null","null","null","null","null","null","[1,3]"
"","canvas-keyboard-response","243","2264304","0.0-6.0-3.39","4","","","","","clear_screen","null","null","","","critical","d","t","c","220.0396","154.6796","240","164","164","240","spektor","0.14","w","240","164","164","240","220.0396","154.6796","39360","39360","34035.6388","dc","null","null","null","null","null","null","[1,3]"
"","canvas-keyboard-response","244","2265593","0.0-6.0-4.39","4","","","","","make choice","1277","3","","","critical","d","t","c","220.0396","154.6796","240","164","164","240","spektor","0.14","w","240","164","164","240","220.0396","154.6796","39360","39360","34035.6388","dc","null","null","null","null","null","null","[1,3]"
"","canvas-keyboard-response","245","2265752","0.0-6.0-5.39","4","","","","","clear_screen","null","null","","","critical","d","t","c","220.0396","154.6796","240","164","164","240","spektor","0.14","w","240","164","164","240","220.0396","154.6796","39360","39360","34035.6388","dc","null","null","null","null","null","null","[1,3]"
"","canvas-keyboard-response","246","2265953","0.0-6.0-0.40","4","","","","","pre trial waiting period","null","null","","","critical","c","t","d","164","240","240","164","232.8713","160.6713","spektor","0.05","w","240","164","164","240","232.8713","160.6713","39360","39360","37415.7294","dc","null","null","null","null","null","null","[3,1]"
"","canvas-keyboard-response","247","2266116","0.0-6.0-1.40","4","","","","","clear_screen","null","null","","","critical","c","t","d","164","240","240","164","232.8713","160.6713","spektor","0.05","w","240","164","164","240","232.8713","160.6713","39360","39360","37415.7294","dc","null","null","null","null","null","null","[3,1]"
"","canvas-keyboard-response","248","2267454","0.0-6.0-2.40","4","","","","","rectangles","null","null","","","critical","c","t","d","164","240","240","164","232.8713","160.6713","spektor","0.05","w","240","164","164","240","232.8713","160.6713","39360","39360","37415.7294","dc","null","null","null","null","null","null","[3,1]"
"","canvas-keyboard-response","249","2267615","0.0-6.0-3.40","4","","","","","clear_screen","null","null","","","critical","c","t","d","164","240","240","164","232.8713","160.6713","spektor","0.05","w","240","164","164","240","232.8713","160.6713","39360","39360","37415.7294","dc","null","null","null","null","null","null","[3,1]"
"","canvas-keyboard-response","250","2268793","0.0-6.0-4.40","4","","","","","make choice","1166","1","","","critical","c","t","d","164","240","240","164","232.8713","160.6713","spektor","0.05","w","240","164","164","240","232.8713","160.6713","39360","39360","37415.7294","dc","null","null","null","null","null","null","[3,1]"
"","canvas-keyboard-response","251","2268953","0.0-6.0-5.40","4","","","","","clear_screen","null","null","","","critical","c","t","d","164","240","240","164","232.8713","160.6713","spektor","0.05","w","240","164","164","240","232.8713","160.6713","39360","39360","37415.7294","dc","null","null","null","null","null","null","[3,1]"
"","canvas-keyboard-response","252","2269153","0.0-6.0-0.41","4","","","","","pre trial waiting period","null","null","","","critical","d","t","c","154.6796","220.0396","164","240","240","164","spektor","0.14","h","164","240","240","164","154.6796","220.0396","39360","39360","34035.6388","tc","null","null","null","null","null","null","[2,3]"
"","canvas-keyboard-response","253","2269316","0.0-6.0-1.41","4","","","","","clear_screen","null","null","","","critical","d","t","c","154.6796","220.0396","164","240","240","164","spektor","0.14","h","164","240","240","164","154.6796","220.0396","39360","39360","34035.6388","tc","null","null","null","null","null","null","[2,3]"
"","canvas-keyboard-response","254","2270653","0.0-6.0-2.41","4","","","","","rectangles","null","null","","","critical","d","t","c","154.6796","220.0396","164","240","240","164","spektor","0.14","h","164","240","240","164","154.6796","220.0396","39360","39360","34035.6388","tc","null","null","null","null","null","null","[2,3]"
"","canvas-keyboard-response","255","2270816","0.0-6.0-3.41","4","","","","","clear_screen","null","null","","","critical","d","t","c","154.6796","220.0396","164","240","240","164","spektor","0.14","h","164","240","240","164","154.6796","220.0396","39360","39360","34035.6388","tc","null","null","null","null","null","null","[2,3]"
"","canvas-keyboard-response","256","2272010","0.0-6.0-4.41","4","","","","","make choice","1181","2","","","critical","d","t","c","154.6796","220.0396","164","240","240","164","spektor","0.14","h","164","240","240","164","154.6796","220.0396","39360","39360","34035.6388","tc","null","null","null","null","null","null","[2,3]"
"","canvas-keyboard-response","257","2272169","0.0-6.0-5.41","4","","","","","clear_screen","null","null","","","critical","d","t","c","154.6796","220.0396","164","240","240","164","spektor","0.14","h","164","240","240","164","154.6796","220.0396","39360","39360","34035.6388","tc","null","null","null","null","null","null","[2,3]"
"","canvas-keyboard-response","258","2272372","0.0-6.0-0.42","4","","","","","pre trial waiting period","null","null","","","catch","sh","sw","l","205","188","194","198","282","191","trueblood","null","null","null","null","null","null","null","null","null","null","null","","180","200","260","200","36000","52000","[2,3]"
"","canvas-keyboard-response","259","2272536","0.0-6.0-1.42","4","","","","","clear_screen","null","null","","","catch","sh","sw","l","205","188","194","198","282","191","trueblood","null","null","null","null","null","null","null","null","null","null","null","","180","200","260","200","36000","52000","[2,3]"
"","canvas-keyboard-response","260","2273870","0.0-6.0-2.42","4","","","","","rectangles","null","null","","","catch","sh","sw","l","205","188","194","198","282","191","trueblood","null","null","null","null","null","null","null","null","null","null","null","","180","200","260","200","36000","52000","[2,3]"
"","canvas-keyboard-response","261","2274032","0.0-6.0-3.42","4","","","","","clear_screen","null","null","","","catch","sh","sw","l","205","188","194","198","282","191","trueblood","null","null","null","null","null","null","null","null","null","null","null","","180","200","260","200","36000","52000","[2,3]"
"","canvas-keyboard-response","262","2274729","0.0-6.0-4.42","4","","","","","make choice","686","3","","","catch","sh","sw","l","205","188","194","198","282","191","trueblood","null","null","null","null","null","null","null","null","null","null","null","","180","200","260","200","36000","52000","[2,3]"
"","canvas-keyboard-response","263","2274888","0.0-6.0-5.42","4","","","","","clear_screen","null","null","","","catch","sh","sw","l","205","188","194","198","282","191","trueblood","null","null","null","null","null","null","null","null","null","null","null","","180","200","260","200","36000","52000","[2,3]"
"","canvas-keyboard-response","264","2275090","0.0-6.0-0.43","4","","","","","pre trial waiting period","null","null","","","critical","c","t","d","164","240","240","164","240","164","spektor","0","w","240","164","164","240","240","164","39360","39360","39360","dc","null","null","null","null","null","null","[3,1]"
"","canvas-keyboard-response","265","2275253","0.0-6.0-1.43","4","","","","","clear_screen","null","null","","","critical","c","t","d","164","240","240","164","240","164","spektor","0","w","240","164","164","240","240","164","39360","39360","39360","dc","null","null","null","null","null","null","[3,1]"
"","canvas-keyboard-response","266","2276588","0.0-6.0-2.43","4","","","","","rectangles","null","null","","","critical","c","t","d","164","240","240","164","240","164","spektor","0","w","240","164","164","240","240","164","39360","39360","39360","dc","null","null","null","null","null","null","[3,1]"
"","canvas-keyboard-response","267","2276746","0.0-6.0-3.43","4","","","","","clear_screen","null","null","","","critical","c","t","d","164","240","240","164","240","164","spektor","0","w","240","164","164","240","240","164","39360","39360","39360","dc","null","null","null","null","null","null","[3,1]"
"","canvas-keyboard-response","268","2277793","0.0-6.0-4.43","4","","","","","make choice","1040","1","","","critical","c","t","d","164","240","240","164","240","164","spektor","0","w","240","164","164","240","240","164","39360","39360","39360","dc","null","null","null","null","null","null","[3,1]"
"","canvas-keyboard-response","269","2277955","0.0-6.0-5.43","4","","","","","clear_screen","null","null","","","critical","c","t","d","164","240","240","164","240","164","spektor","0","w","240","164","164","240","240","164","39360","39360","39360","dc","null","null","null","null","null","null","[3,1]"
"","canvas-keyboard-response","270","2278156","0.0-6.0-0.44","4","","","","","pre trial waiting period","null","null","","","critical","c","t","d","164","240","240","164","227.1683","158.0083","spektor","0.09","w","240","164","164","240","227.1683","158.0083","39360","39360","35894.4834","tc","null","null","null","null","null","null","[2,1]"
"","canvas-keyboard-response","271","2278316","0.0-6.0-1.44","4","","","","","clear_screen","null","null","","","critical","c","t","d","164","240","240","164","227.1683","158.0083","spektor","0.09","w","240","164","164","240","227.1683","158.0083","39360","39360","35894.4834","tc","null","null","null","null","null","null","[2,1]"
"","canvas-keyboard-response","272","2279651","0.0-6.0-2.44","4","","","","","rectangles","null","null","","","critical","c","t","d","164","240","240","164","227.1683","158.0083","spektor","0.09","w","240","164","164","240","227.1683","158.0083","39360","39360","35894.4834","tc","null","null","null","null","null","null","[2,1]"
"","canvas-keyboard-response","273","2279810","0.0-6.0-3.44","4","","","","","clear_screen","null","null","","","critical","c","t","d","164","240","240","164","227.1683","158.0083","spektor","0.09","w","240","164","164","240","227.1683","158.0083","39360","39360","35894.4834","tc","null","null","null","null","null","null","[2,1]"
"","canvas-keyboard-response","274","2280801","0.0-6.0-4.44","4","","","","","make choice","982","1","","","critical","c","t","d","164","240","240","164","227.1683","158.0083","spektor","0.09","w","240","164","164","240","227.1683","158.0083","39360","39360","35894.4834","tc","null","null","null","null","null","null","[2,1]"
"","canvas-keyboard-response","275","2280963","0.0-6.0-5.44","4","","","","","clear_screen","null","null","","","critical","c","t","d","164","240","240","164","227.1683","158.0083","spektor","0.09","w","240","164","164","240","227.1683","158.0083","39360","39360","35894.4834","tc","null","null","null","null","null","null","[2,1]"
"","canvas-keyboard-response","276","2281164","0.0-6.0-0.45","4","","","","","pre trial waiting period","null","null","","","critical","d","t","c","158.0083","227.1683","164","240","240","164","spektor","0.09","h","164","240","240","164","158.0083","227.1683","39360","39360","35894.4834","tc","null","null","null","null","null","null","[2,3]"
"","canvas-keyboard-response","277","2281325","0.0-6.0-1.45","4","","","","","clear_screen","null","null","","","critical","d","t","c","158.0083","227.1683","164","240","240","164","spektor","0.09","h","164","240","240","164","158.0083","227.1683","39360","39360","35894.4834","tc","null","null","null","null","null","null","[2,3]"
"","canvas-keyboard-response","278","2282660","0.0-6.0-2.45","4","","","","","rectangles","null","null","","","critical","d","t","c","158.0083","227.1683","164","240","240","164","spektor","0.09","h","164","240","240","164","158.0083","227.1683","39360","39360","35894.4834","tc","null","null","null","null","null","null","[2,3]"
"","canvas-keyboard-response","279","2282823","0.0-6.0-3.45","4","","","","","clear_screen","null","null","","","critical","d","t","c","158.0083","227.1683","164","240","240","164","spektor","0.09","h","164","240","240","164","158.0083","227.1683","39360","39360","35894.4834","tc","null","null","null","null","null","null","[2,3]"
"","canvas-keyboard-response","280","2283945","0.0-6.0-4.45","4","","","","","make choice","1110","2","","","critical","d","t","c","158.0083","227.1683","164","240","240","164","spektor","0.09","h","164","240","240","164","158.0083","227.1683","39360","39360","35894.4834","tc","null","null","null","null","null","null","[2,3]"
"","canvas-keyboard-response","281","2284105","0.0-6.0-5.45","4","","","","","clear_screen","null","null","","","critical","d","t","c","158.0083","227.1683","164","240","240","164","spektor","0.09","h","164","240","240","164","158.0083","227.1683","39360","39360","35894.4834","tc","null","null","null","null","null","null","[2,3]"
"","canvas-keyboard-response","282","2284305","0.0-6.0-0.46","4","","","","","pre trial waiting period","null","null","","","critical","t","d","c","164","240","158.0083","227.1683","240","164","spektor","0.09","h","164","240","240","164","158.0083","227.1683","39360","39360","35894.4834","dc","null","null","null","null","null","null","[2,3]"
"","canvas-keyboard-response","283","2284467","0.0-6.0-1.46","4","","","","","clear_screen","null","null","","","critical","t","d","c","164","240","158.0083","227.1683","240","164","spektor","0.09","h","164","240","240","164","158.0083","227.1683","39360","39360","35894.4834","dc","null","null","null","null","null","null","[2,3]"
"","canvas-keyboard-response","284","2285806","0.0-6.0-2.46","4","","","","","rectangles","null","null","","","critical","t","d","c","164","240","158.0083","227.1683","240","164","spektor","0.09","h","164","240","240","164","158.0083","227.1683","39360","39360","35894.4834","dc","null","null","null","null","null","null","[2,3]"
"","canvas-keyboard-response","285","2285966","0.0-6.0-3.46","4","","","","","clear_screen","null","null","","","critical","t","d","c","164","240","158.0083","227.1683","240","164","spektor","0.09","h","164","240","240","164","158.0083","227.1683","39360","39360","35894.4834","dc","null","null","null","null","null","null","[2,3]"
"","canvas-keyboard-response","286","2287121","0.0-6.0-4.46","4","","","","","make choice","1145","3","","","critical","t","d","c","164","240","158.0083","227.1683","240","164","spektor","0.09","h","164","240","240","164","158.0083","227.1683","39360","39360","35894.4834","dc","null","null","null","null","null","null","[2,3]"
"","canvas-keyboard-response","287","2287280","0.0-6.0-5.46","4","","","","","clear_screen","null","null","","","critical","t","d","c","164","240","158.0083","227.1683","240","164","spektor","0.09","h","164","240","240","164","158.0083","227.1683","39360","39360","35894.4834","dc","null","null","null","null","null","null","[2,3]"
"","canvas-keyboard-response","288","2287481","0.0-6.0-0.47","4","","","","","pre trial waiting period","null","null","","","critical","t","c","d","240","164","164","240","227.1683","158.0083","spektor","0.09","w","240","164","164","240","227.1683","158.0083","39360","39360","35894.4834","td","null","null","null","null","null","null","[1,3]"
"","canvas-keyboard-response","289","2287644","0.0-6.0-1.47","4","","","","","clear_screen","null","null","","","critical","t","c","d","240","164","164","240","227.1683","158.0083","spektor","0.09","w","240","164","164","240","227.1683","158.0083","39360","39360","35894.4834","td","null","null","null","null","null","null","[1,3]"
"","canvas-keyboard-response","290","2288978","0.0-6.0-2.47","4","","","","","rectangles","null","null","","","critical","t","c","d","240","164","164","240","227.1683","158.0083","spektor","0.09","w","240","164","164","240","227.1683","158.0083","39360","39360","35894.4834","td","null","null","null","null","null","null","[1,3]"
"","canvas-keyboard-response","291","2289138","0.0-6.0-3.47","4","","","","","clear_screen","null","null","","","critical","t","c","d","240","164","164","240","227.1683","158.0083","spektor","0.09","w","240","164","164","240","227.1683","158.0083","39360","39360","35894.4834","td","null","null","null","null","null","null","[1,3]"
"","canvas-keyboard-response","292","2290705","0.0-6.0-4.47","4","","","","","make choice","1558","3","","","critical","t","c","d","240","164","164","240","227.1683","158.0083","spektor","0.09","w","240","164","164","240","227.1683","158.0083","39360","39360","35894.4834","td","null","null","null","null","null","null","[1,3]"
"","canvas-keyboard-response","293","2290862","0.0-6.0-5.47","4","","","","","clear_screen","null","null","","","critical","t","c","d","240","164","164","240","227.1683","158.0083","spektor","0.09","w","240","164","164","240","227.1683","158.0083","39360","39360","35894.4834","td","null","null","null","null","null","null","[1,3]"
"","canvas-keyboard-response","294","2291063","0.0-6.0-0.48","4","","","","","pre trial waiting period","null","null","","","critical","d","t","c","158.0083","227.1683","164","240","240","164","trueblood","0.09","h","164","240","240","164","158.0083","227.1683","39360","39360","35894.4834","td","null","null","null","null","null","null","[2,1]"
"","canvas-keyboard-response","295","2291227","0.0-6.0-1.48","4","","","","","clear_screen","null","null","","","critical","d","t","c","158.0083","227.1683","164","240","240","164","trueblood","0.09","h","164","240","240","164","158.0083","227.1683","39360","39360","35894.4834","td","null","null","null","null","null","null","[2,1]"
"","canvas-keyboard-response","296","2292558","0.0-6.0-2.48","4","","","","","rectangles","null","null","","","critical","d","t","c","158.0083","227.1683","164","240","240","164","trueblood","0.09","h","164","240","240","164","158.0083","227.1683","39360","39360","35894.4834","td","null","null","null","null","null","null","[2,1]"
"","canvas-keyboard-response","297","2292711","0.0-6.0-3.48","4","","","","","clear_screen","null","null","","","critical","d","t","c","158.0083","227.1683","164","240","240","164","trueblood","0.09","h","164","240","240","164","158.0083","227.1683","39360","39360","35894.4834","td","null","null","null","null","null","null","[2,1]"
"","canvas-keyboard-response","298","2293928","0.0-6.0-4.48","4","","","","","make choice","1207","2","","","critical","d","t","c","158.0083","227.1683","164","240","240","164","trueblood","0.09","h","164","240","240","164","158.0083","227.1683","39360","39360","35894.4834","td","null","null","null","null","null","null","[2,1]"
"","canvas-keyboard-response","299","2294088","0.0-6.0-5.48","4","","","","","clear_screen","null","null","","","critical","d","t","c","158.0083","227.1683","164","240","240","164","trueblood","0.09","h","164","240","240","164","158.0083","227.1683","39360","39360","35894.4834","td","null","null","null","null","null","null","[2,1]"
"","canvas-keyboard-response","300","2294289","0.0-6.0-0.49","4","","","","","pre trial waiting period","null","null","","","catch","sh","l","sw","197","154","225","228","215","212","trueblood","null","null","null","null","null","null","null","null","null","null","null","","180","200","260","200","36000","52000","[2,3]"
"","canvas-keyboard-response","301","2294452","0.0-6.0-1.49","4","","","","","clear_screen","null","null","","","catch","sh","l","sw","197","154","225","228","215","212","trueblood","null","null","null","null","null","null","null","null","null","null","null","","180","200","260","200","36000","52000","[2,3]"
"","canvas-keyboard-response","302","2295791","0.0-6.0-2.49","4","","","","","rectangles","null","null","","","catch","sh","l","sw","197","154","225","228","215","212","trueblood","null","null","null","null","null","null","null","null","null","null","null","","180","200","260","200","36000","52000","[2,3]"
"","canvas-keyboard-response","303","2295951","0.0-6.0-3.49","4","","","","","clear_screen","null","null","","","catch","sh","l","sw","197","154","225","228","215","212","trueblood","null","null","null","null","null","null","null","null","null","null","null","","180","200","260","200","36000","52000","[2,3]"
"","canvas-keyboard-response","304","2296817","0.0-6.0-4.49","4","","","","","make choice","855","2","","","catch","sh","l","sw","197","154","225","228","215","212","trueblood","null","null","null","null","null","null","null","null","null","null","null","","180","200","260","200","36000","52000","[2,3]"
"","canvas-keyboard-response","305","2296976","0.0-6.0-5.49","4","","","","","clear_screen","null","null","","","catch","sh","l","sw","197","154","225","228","215","212","trueblood","null","null","null","null","null","null","null","null","null","null","null","","180","200","260","200","36000","52000","[2,3]"
"","canvas-keyboard-response","306","2297178","0.0-6.0-0.50","4","","","","","pre trial waiting period","null","null","","","catch","l","sw","sh","222","243","169","161","181","201","spektor","null","null","null","null","null","null","null","null","null","null","null","","180","200","260","200","36000","52000","[1,2]"
"","canvas-keyboard-response","307","2297337","0.0-6.0-1.50","4","","","","","clear_screen","null","null","","","catch","l","sw","sh","222","243","169","161","181","201","spektor","null","null","null","null","null","null","null","null","null","null","null","","180","200","260","200","36000","52000","[1,2]"
"","canvas-keyboard-response","308","2298673","0.0-6.0-2.50","4","","","","","rectangles","null","null","","","catch","l","sw","sh","222","243","169","161","181","201","spektor","null","null","null","null","null","null","null","null","null","null","null","","180","200","260","200","36000","52000","[1,2]"
"","canvas-keyboard-response","309","2298831","0.0-6.0-3.50","4","","","","","clear_screen","null","null","","","catch","l","sw","sh","222","243","169","161","181","201","spektor","null","null","null","null","null","null","null","null","null","null","null","","180","200","260","200","36000","52000","[1,2]"
