"success","trial_type","trial_index","time_elapsed","internal_node_id","sub_n","timeout","failed_images","failed_audio","failed_video","screen_id","rt","response","stimulus","view_history","trial","r1","r2","r3","w1","h1","w2","h2","w3","h3","display","tdd","tdo","tw","th","cw","ch","dw","dh","ta","ca","da","probe","csls","csss","clls","clss","sa","la","probe_rects"
"true","fullscreen","0","3593","0.0-0.0","24","","","","","","","","","","","","","","","","","","","","","","","","","","","","","","","","","","","","","","",""
"true","preload","1","3611","0.0-1.0","24","false","[]","[]","[]","img preload","","","","","","","","","","","","","","","","","","","","","","","","","","","","","","","","","",""
"","survey-html-form","2","8715","0.0-2.0","24","","","","","enter-sub-number","5099","{""response"":""24""}","","","","","","","","","","","","","","","","","","","","","","","","","","","","","","","",""
"","image-button-response","3","42514","0.0-3.0","24","","","","","","33730","0","consent.png","","","","","","","","","","","","","","","","","","","","","","","","","","","","","","",""
"","html-button-response","4","49208","0.0-4.0","24","","","","","intro mssg","6686","0","<div style= ""font-size:25px;"" <p> <strong> Welcome! </strong><br> <p style=""color:#8B0000; font-size:25px;""><strong> Please do NOT exit full screen until you are done with the experiment. </strong> </p><p style=""font-size:25px;color:#8B0000;""> <strong> Your data will be lost <br> if you try to go back or refresh the page after the experiment starts. Feel free to click ""previous"" during the instructions, however.</strong> </p><br><p> <strong> Thanks in advance for your contribution to our research! </strong></p>","","","","","","","","","","","","","","","","","","","","","","","","","","","","","","",""
"","instructions","5","81112","0.0-5.0","24","","","","","instructions","31898","","","[{""page_index"":0,""viewing_time"":4107},{""page_index"":1,""viewing_time"":7239},{""page_index"":2,""viewing_time"":1649},{""page_index"":3,""viewing_time"":10279},{""page_index"":4,""viewing_time"":2392},{""page_index"":5,""viewing_time"":2528},{""page_index"":6,""viewing_time"":1608},{""page_index"":7,""viewing_time"":2095}]","","","","","","","","","","","","","","","","","","","","","","","","","","","","","",""
"","canvas-keyboard-response","6","81319","0.0-6.0-0.0","24","","","","","pre trial waiting period","null","null","","","critical","t","c","d","164","240","240","164","162.6685","237.1485","spektor","0.02","h","164","240","240","164","162.6685","237.1485","39360","39360","38576.5967","td","null","null","null","null","null","null","[1,3]"
"","canvas-keyboard-response","7","81483","0.0-6.0-1.0","24","","","","","clear_screen","null","null","","","critical","t","c","d","164","240","240","164","162.6685","237.1485","spektor","0.02","h","164","240","240","164","162.6685","237.1485","39360","39360","38576.5967","td","null","null","null","null","null","null","[1,3]"
"","canvas-keyboard-response","8","82823","0.0-6.0-2.0","24","","","","","rectangles","null","null","","","critical","t","c","d","164","240","240","164","162.6685","237.1485","spektor","0.02","h","164","240","240","164","162.6685","237.1485","39360","39360","38576.5967","td","null","null","null","null","null","null","[1,3]"
"","canvas-keyboard-response","9","82987","0.0-6.0-3.0","24","","","","","clear_screen","null","null","","","critical","t","c","d","164","240","240","164","162.6685","237.1485","spektor","0.02","h","164","240","240","164","162.6685","237.1485","39360","39360","38576.5967","td","null","null","null","null","null","null","[1,3]"
"","canvas-keyboard-response","10","84775","0.0-6.0-4.0","24","","","","","make choice","1778","3","","","critical","t","c","d","164","240","240","164","162.6685","237.1485","spektor","0.02","h","164","240","240","164","162.6685","237.1485","39360","39360","38576.5967","td","null","null","null","null","null","null","[1,3]"
"","canvas-keyboard-response","11","84936","0.0-6.0-5.0","24","","","","","clear_screen","null","null","","","critical","t","c","d","164","240","240","164","162.6685","237.1485","spektor","0.02","h","164","240","240","164","162.6685","237.1485","39360","39360","38576.5967","td","null","null","null","null","null","null","[1,3]"
"","canvas-keyboard-response","12","85139","0.0-6.0-0.1","24","","","","","pre trial waiting period","null","null","","","critical","c","d","t","164","240","240","164","240","164","spektor","0","w","240","164","164","240","240","164","39360","39360","39360","td","null","null","null","null","null","null","[3,2]"
"","canvas-keyboard-response","13","85302","0.0-6.0-1.1","24","","","","","clear_screen","null","null","","","critical","c","d","t","164","240","240","164","240","164","spektor","0","w","240","164","164","240","240","164","39360","39360","39360","td","null","null","null","null","null","null","[3,2]"
"","canvas-keyboard-response","14","86638","0.0-6.0-2.1","24","","","","","rectangles","null","null","","","critical","c","d","t","164","240","240","164","240","164","spektor","0","w","240","164","164","240","240","164","39360","39360","39360","td","null","null","null","null","null","null","[3,2]"
"","canvas-keyboard-response","15","86803","0.0-6.0-3.1","24","","","","","clear_screen","null","null","","","critical","c","d","t","164","240","240","164","240","164","spektor","0","w","240","164","164","240","240","164","39360","39360","39360","td","null","null","null","null","null","null","[3,2]"
"","canvas-keyboard-response","16","89087","0.0-6.0-4.1","24","","","","","make choice","2273","2","","","critical","c","d","t","164","240","240","164","240","164","spektor","0","w","240","164","164","240","240","164","39360","39360","39360","td","null","null","null","null","null","null","[3,2]"
"","canvas-keyboard-response","17","89248","0.0-6.0-5.1","24","","","","","clear_screen","null","null","","","critical","c","d","t","164","240","240","164","240","164","spektor","0","w","240","164","164","240","240","164","39360","39360","39360","td","null","null","null","null","null","null","[3,2]"
"","canvas-keyboard-response","18","89451","0.0-6.0-0.2","24","","","","","pre trial waiting period","null","null","","","catch","l","sw","sh","270","177","173","202","234","181","trueblood","null","null","null","null","null","null","null","null","null","null","null","","180","200","260","200","36000","52000","[1,2]"
"","canvas-keyboard-response","19","89612","0.0-6.0-1.2","24","","","","","clear_screen","null","null","","","catch","l","sw","sh","270","177","173","202","234","181","trueblood","null","null","null","null","null","null","null","null","null","null","null","","180","200","260","200","36000","52000","[1,2]"
"","canvas-keyboard-response","20","90951","0.0-6.0-2.2","24","","","","","rectangles","null","null","","","catch","l","sw","sh","270","177","173","202","234","181","trueblood","null","null","null","null","null","null","null","null","null","null","null","","180","200","260","200","36000","52000","[1,2]"
"","canvas-keyboard-response","21","91113","0.0-6.0-3.2","24","","","","","clear_screen","null","null","","","catch","l","sw","sh","270","177","173","202","234","181","trueblood","null","null","null","null","null","null","null","null","null","null","null","","180","200","260","200","36000","52000","[1,2]"
"","canvas-keyboard-response","22","92095","0.0-6.0-4.2","24","","","","","make choice","970","1","","","catch","l","sw","sh","270","177","173","202","234","181","trueblood","null","null","null","null","null","null","null","null","null","null","null","","180","200","260","200","36000","52000","[1,2]"
"","canvas-keyboard-response","23","92255","0.0-6.0-5.2","24","","","","","clear_screen","null","null","","","catch","l","sw","sh","270","177","173","202","234","181","trueblood","null","null","null","null","null","null","null","null","null","null","null","","180","200","260","200","36000","52000","[1,2]"
"","canvas-keyboard-response","24","92457","0.0-6.0-0.3","24","","","","","pre trial waiting period","null","null","","","critical","c","t","d","164","240","240","164","237.1485","162.6685","trueblood","0.02","w","240","164","164","240","237.1485","162.6685","39360","39360","38576.5967","td","null","null","null","null","null","null","[2,3]"
"","canvas-keyboard-response","25","92619","0.0-6.0-1.3","24","","","","","clear_screen","null","null","","","critical","c","t","d","164","240","240","164","237.1485","162.6685","trueblood","0.02","w","240","164","164","240","237.1485","162.6685","39360","39360","38576.5967","td","null","null","null","null","null","null","[2,3]"
"","canvas-keyboard-response","26","93957","0.0-6.0-2.3","24","","","","","rectangles","null","null","","","critical","c","t","d","164","240","240","164","237.1485","162.6685","trueblood","0.02","w","240","164","164","240","237.1485","162.6685","39360","39360","38576.5967","td","null","null","null","null","null","null","[2,3]"
"","canvas-keyboard-response","27","94118","0.0-6.0-3.3","24","","","","","clear_screen","null","null","","","critical","c","t","d","164","240","240","164","237.1485","162.6685","trueblood","0.02","w","240","164","164","240","237.1485","162.6685","39360","39360","38576.5967","td","null","null","null","null","null","null","[2,3]"
"","canvas-keyboard-response","28","95302","0.0-6.0-4.3","24","","","","","make choice","1174","2","","","critical","c","t","d","164","240","240","164","237.1485","162.6685","trueblood","0.02","w","240","164","164","240","237.1485","162.6685","39360","39360","38576.5967","td","null","null","null","null","null","null","[2,3]"
"","canvas-keyboard-response","29","95461","0.0-6.0-5.3","24","","","","","clear_screen","null","null","","","critical","c","t","d","164","240","240","164","237.1485","162.6685","trueblood","0.02","w","240","164","164","240","237.1485","162.6685","39360","39360","38576.5967","td","null","null","null","null","null","null","[2,3]"
"","canvas-keyboard-response","30","95663","0.0-6.0-0.4","24","","","","","pre trial waiting period","null","null","","","critical","c","t","d","164","240","240","164","227.1683","158.0083","spektor","0.09","w","240","164","164","240","227.1683","158.0083","39360","39360","35894.4834","dc","null","null","null","null","null","null","[3,1]"
"","canvas-keyboard-response","31","95825","0.0-6.0-1.4","24","","","","","clear_screen","null","null","","","critical","c","t","d","164","240","240","164","227.1683","158.0083","spektor","0.09","w","240","164","164","240","227.1683","158.0083","39360","39360","35894.4834","dc","null","null","null","null","null","null","[3,1]"
"","canvas-keyboard-response","32","97164","0.0-6.0-2.4","24","","","","","rectangles","null","null","","","critical","c","t","d","164","240","240","164","227.1683","158.0083","spektor","0.09","w","240","164","164","240","227.1683","158.0083","39360","39360","35894.4834","dc","null","null","null","null","null","null","[3,1]"
"","canvas-keyboard-response","33","97328","0.0-6.0-3.4","24","","","","","clear_screen","null","null","","","critical","c","t","d","164","240","240","164","227.1683","158.0083","spektor","0.09","w","240","164","164","240","227.1683","158.0083","39360","39360","35894.4834","dc","null","null","null","null","null","null","[3,1]"
"","canvas-keyboard-response","34","97871","0.0-6.0-4.4","24","","","","","make choice","533","1","","","critical","c","t","d","164","240","240","164","227.1683","158.0083","spektor","0.09","w","240","164","164","240","227.1683","158.0083","39360","39360","35894.4834","dc","null","null","null","null","null","null","[3,1]"
"","canvas-keyboard-response","35","98028","0.0-6.0-5.4","24","","","","","clear_screen","null","null","","","critical","c","t","d","164","240","240","164","227.1683","158.0083","spektor","0.09","w","240","164","164","240","227.1683","158.0083","39360","39360","35894.4834","dc","null","null","null","null","null","null","[3,1]"
"","canvas-keyboard-response","36","98230","0.0-6.0-0.5","24","","","","","pre trial waiting period","null","null","","","critical","t","c","d","240","164","164","240","240","164","spektor","0","w","240","164","164","240","240","164","39360","39360","39360","tc","null","null","null","null","null","null","[1,2]"
"","canvas-keyboard-response","37","98393","0.0-6.0-1.5","24","","","","","clear_screen","null","null","","","critical","t","c","d","240","164","164","240","240","164","spektor","0","w","240","164","164","240","240","164","39360","39360","39360","tc","null","null","null","null","null","null","[1,2]"
"","canvas-keyboard-response","38","99723","0.0-6.0-2.5","24","","","","","rectangles","null","null","","","critical","t","c","d","240","164","164","240","240","164","spektor","0","w","240","164","164","240","240","164","39360","39360","39360","tc","null","null","null","null","null","null","[1,2]"
"","canvas-keyboard-response","39","99883","0.0-6.0-3.5","24","","","","","clear_screen","null","null","","","critical","t","c","d","240","164","164","240","240","164","spektor","0","w","240","164","164","240","240","164","39360","39360","39360","tc","null","null","null","null","null","null","[1,2]"
"","canvas-keyboard-response","40","100815","0.0-6.0-4.5","24","","","","","make choice","921","2","","","critical","t","c","d","240","164","164","240","240","164","spektor","0","w","240","164","164","240","240","164","39360","39360","39360","tc","null","null","null","null","null","null","[1,2]"
"","canvas-keyboard-response","41","100975","0.0-6.0-5.5","24","","","","","clear_screen","null","null","","","critical","t","c","d","240","164","164","240","240","164","spektor","0","w","240","164","164","240","240","164","39360","39360","39360","tc","null","null","null","null","null","null","[1,2]"
"","canvas-keyboard-response","42","101177","0.0-6.0-0.6","24","","","","","pre trial waiting period","null","null","","","critical","d","t","c","232.8713","160.6713","240","164","164","240","trueblood","0.05","w","240","164","164","240","232.8713","160.6713","39360","39360","37415.7294","tc","null","null","null","null","null","null","[2,3]"
"","canvas-keyboard-response","43","101334","0.0-6.0-1.6","24","","","","","clear_screen","null","null","","","critical","d","t","c","232.8713","160.6713","240","164","164","240","trueblood","0.05","w","240","164","164","240","232.8713","160.6713","39360","39360","37415.7294","tc","null","null","null","null","null","null","[2,3]"
"","canvas-keyboard-response","44","102675","0.0-6.0-2.6","24","","","","","rectangles","null","null","","","critical","d","t","c","232.8713","160.6713","240","164","164","240","trueblood","0.05","w","240","164","164","240","232.8713","160.6713","39360","39360","37415.7294","tc","null","null","null","null","null","null","[2,3]"
"","canvas-keyboard-response","45","102836","0.0-6.0-3.6","24","","","","","clear_screen","null","null","","","critical","d","t","c","232.8713","160.6713","240","164","164","240","trueblood","0.05","w","240","164","164","240","232.8713","160.6713","39360","39360","37415.7294","tc","null","null","null","null","null","null","[2,3]"
"","canvas-keyboard-response","46","104007","0.0-6.0-4.6","24","","","","","make choice","1158","2","","","critical","d","t","c","232.8713","160.6713","240","164","164","240","trueblood","0.05","w","240","164","164","240","232.8713","160.6713","39360","39360","37415.7294","tc","null","null","null","null","null","null","[2,3]"
"","canvas-keyboard-response","47","104166","0.0-6.0-5.6","24","","","","","clear_screen","null","null","","","critical","d","t","c","232.8713","160.6713","240","164","164","240","trueblood","0.05","w","240","164","164","240","232.8713","160.6713","39360","39360","37415.7294","tc","null","null","null","null","null","null","[2,3]"
"","canvas-keyboard-response","48","104368","0.0-6.0-0.7","24","","","","","pre trial waiting period","null","null","","","catch","sw","l","sh","180","200","238","214","229","208","spektor","null","null","null","null","null","null","null","null","null","null","null","","180","200","260","200","36000","52000","[1,2]"
"","canvas-keyboard-response","49","104529","0.0-6.0-1.7","24","","","","","clear_screen","null","null","","","catch","sw","l","sh","180","200","238","214","229","208","spektor","null","null","null","null","null","null","null","null","null","null","null","","180","200","260","200","36000","52000","[1,2]"
"","canvas-keyboard-response","50","105867","0.0-6.0-2.7","24","","","","","rectangles","null","null","","","catch","sw","l","sh","180","200","238","214","229","208","spektor","null","null","null","null","null","null","null","null","null","null","null","","180","200","260","200","36000","52000","[1,2]"
"","canvas-keyboard-response","51","106026","0.0-6.0-3.7","24","","","","","clear_screen","null","null","","","catch","sw","l","sh","180","200","238","214","229","208","spektor","null","null","null","null","null","null","null","null","null","null","null","","180","200","260","200","36000","52000","[1,2]"
"","canvas-keyboard-response","52","106935","0.0-6.0-4.7","24","","","","","make choice","895","2","","","catch","sw","l","sh","180","200","238","214","229","208","spektor","null","null","null","null","null","null","null","null","null","null","null","","180","200","260","200","36000","52000","[1,2]"
"","canvas-keyboard-response","53","107095","0.0-6.0-5.7","24","","","","","clear_screen","null","null","","","catch","sw","l","sh","180","200","238","214","229","208","spektor","null","null","null","null","null","null","null","null","null","null","null","","180","200","260","200","36000","52000","[1,2]"
"","canvas-keyboard-response","54","107296","0.0-6.0-0.8","24","","","","","pre trial waiting period","null","null","","","catch","l","sw","sh","248","215","168","192","205","141","spektor","null","null","null","null","null","null","null","null","null","null","null","","180","200","260","200","36000","52000","[1,2]"
"","canvas-keyboard-response","55","107455","0.0-6.0-1.8","24","","","","","clear_screen","null","null","","","catch","l","sw","sh","248","215","168","192","205","141","spektor","null","null","null","null","null","null","null","null","null","null","null","","180","200","260","200","36000","52000","[1,2]"
"","canvas-keyboard-response","56","108795","0.0-6.0-2.8","24","","","","","rectangles","null","null","","","catch","l","sw","sh","248","215","168","192","205","141","spektor","null","null","null","null","null","null","null","null","null","null","null","","180","200","260","200","36000","52000","[1,2]"
"","canvas-keyboard-response","57","108958","0.0-6.0-3.8","24","","","","","clear_screen","null","null","","","catch","l","sw","sh","248","215","168","192","205","141","spektor","null","null","null","null","null","null","null","null","null","null","null","","180","200","260","200","36000","52000","[1,2]"
"","canvas-keyboard-response","58","109687","0.0-6.0-4.8","24","","","","","make choice","717","1","","","catch","l","sw","sh","248","215","168","192","205","141","spektor","null","null","null","null","null","null","null","null","null","null","null","","180","200","260","200","36000","52000","[1,2]"
"","canvas-keyboard-response","59","109848","0.0-6.0-5.8","24","","","","","clear_screen","null","null","","","catch","l","sw","sh","248","215","168","192","205","141","spektor","null","null","null","null","null","null","null","null","null","null","null","","180","200","260","200","36000","52000","[1,2]"
"","canvas-keyboard-response","60","110049","0.0-6.0-0.9","24","","","","","pre trial waiting period","null","null","","","catch","sw","sh","l","180","200","186","214","280","239","trueblood","null","null","null","null","null","null","null","null","null","null","null","","180","200","260","200","36000","52000","[2,3]"
"","canvas-keyboard-response","61","110211","0.0-6.0-1.9","24","","","","","clear_screen","null","null","","","catch","sw","sh","l","180","200","186","214","280","239","trueblood","null","null","null","null","null","null","null","null","null","null","null","","180","200","260","200","36000","52000","[2,3]"
"","canvas-keyboard-response","62","111551","0.0-6.0-2.9","24","","","","","rectangles","null","null","","","catch","sw","sh","l","180","200","186","214","280","239","trueblood","null","null","null","null","null","null","null","null","null","null","null","","180","200","260","200","36000","52000","[2,3]"
"","canvas-keyboard-response","63","111715","0.0-6.0-3.9","24","","","","","clear_screen","null","null","","","catch","sw","sh","l","180","200","186","214","280","239","trueblood","null","null","null","null","null","null","null","null","null","null","null","","180","200","260","200","36000","52000","[2,3]"
"","canvas-keyboard-response","64","112135","0.0-6.0-4.9","24","","","","","make choice","406","3","","","catch","sw","sh","l","180","200","186","214","280","239","trueblood","null","null","null","null","null","null","null","null","null","null","null","","180","200","260","200","36000","52000","[2,3]"
"","canvas-keyboard-response","65","112296","0.0-6.0-5.9","24","","","","","clear_screen","null","null","","","catch","sw","sh","l","180","200","186","214","280","239","trueblood","null","null","null","null","null","null","null","null","null","null","null","","180","200","260","200","36000","52000","[2,3]"
"","canvas-keyboard-response","66","112498","0.0-6.0-0.10","24","","","","","pre trial waiting period","null","null","","","catch","sw","sh","l","180","200","176","210","182","256","spektor","null","null","null","null","null","null","null","null","null","null","null","","180","200","260","200","36000","52000","[1,3]"
"","canvas-keyboard-response","67","112658","0.0-6.0-1.10","24","","","","","clear_screen","null","null","","","catch","sw","sh","l","180","200","176","210","182","256","spektor","null","null","null","null","null","null","null","null","null","null","null","","180","200","260","200","36000","52000","[1,3]"
"","canvas-keyboard-response","68","113996","0.0-6.0-2.10","24","","","","","rectangles","null","null","","","catch","sw","sh","l","180","200","176","210","182","256","spektor","null","null","null","null","null","null","null","null","null","null","null","","180","200","260","200","36000","52000","[1,3]"
"","canvas-keyboard-response","69","114154","0.0-6.0-3.10","24","","","","","clear_screen","null","null","","","catch","sw","sh","l","180","200","176","210","182","256","spektor","null","null","null","null","null","null","null","null","null","null","null","","180","200","260","200","36000","52000","[1,3]"
"","canvas-keyboard-response","70","114567","0.0-6.0-4.10","24","","","","","make choice","401","3","","","catch","sw","sh","l","180","200","176","210","182","256","spektor","null","null","null","null","null","null","null","null","null","null","null","","180","200","260","200","36000","52000","[1,3]"
"","canvas-keyboard-response","71","114728","0.0-6.0-5.10","24","","","","","clear_screen","null","null","","","catch","sw","sh","l","180","200","176","210","182","256","spektor","null","null","null","null","null","null","null","null","null","null","null","","180","200","260","200","36000","52000","[1,3]"
"","canvas-keyboard-response","72","114929","0.0-6.0-0.11","24","","","","","pre trial waiting period","null","null","","","critical","t","d","c","164","240","162.6685","237.1485","240","164","trueblood","0.02","h","164","240","240","164","162.6685","237.1485","39360","39360","38576.5967","dc","null","null","null","null","null","null","[2,3]"
"","canvas-keyboard-response","73","115093","0.0-6.0-1.11","24","","","","","clear_screen","null","null","","","critical","t","d","c","164","240","162.6685","237.1485","240","164","trueblood","0.02","h","164","240","240","164","162.6685","237.1485","39360","39360","38576.5967","dc","null","null","null","null","null","null","[2,3]"
"","canvas-keyboard-response","74","116431","0.0-6.0-2.11","24","","","","","rectangles","null","null","","","critical","t","d","c","164","240","162.6685","237.1485","240","164","trueblood","0.02","h","164","240","240","164","162.6685","237.1485","39360","39360","38576.5967","dc","null","null","null","null","null","null","[2,3]"
"","canvas-keyboard-response","75","116592","0.0-6.0-3.11","24","","","","","clear_screen","null","null","","","critical","t","d","c","164","240","162.6685","237.1485","240","164","trueblood","0.02","h","164","240","240","164","162.6685","237.1485","39360","39360","38576.5967","dc","null","null","null","null","null","null","[2,3]"
"","canvas-keyboard-response","76","117567","0.0-6.0-4.11","24","","","","","make choice","962","2","","","critical","t","d","c","164","240","162.6685","237.1485","240","164","trueblood","0.02","h","164","240","240","164","162.6685","237.1485","39360","39360","38576.5967","dc","null","null","null","null","null","null","[2,3]"
"","canvas-keyboard-response","77","117726","0.0-6.0-5.11","24","","","","","clear_screen","null","null","","","critical","t","d","c","164","240","162.6685","237.1485","240","164","trueblood","0.02","h","164","240","240","164","162.6685","237.1485","39360","39360","38576.5967","dc","null","null","null","null","null","null","[2,3]"
"","canvas-keyboard-response","78","117927","0.0-6.0-0.12","24","","","","","pre trial waiting period","null","null","","","catch","sw","sh","l","180","200","200","180","231","277","spektor","null","null","null","null","null","null","null","null","null","null","null","","180","200","260","200","36000","52000","[2,3]"
"","canvas-keyboard-response","79","118088","0.0-6.0-1.12","24","","","","","clear_screen","null","null","","","catch","sw","sh","l","180","200","200","180","231","277","spektor","null","null","null","null","null","null","null","null","null","null","null","","180","200","260","200","36000","52000","[2,3]"
"","canvas-keyboard-response","80","119423","0.0-6.0-2.12","24","","","","","rectangles","null","null","","","catch","sw","sh","l","180","200","200","180","231","277","spektor","null","null","null","null","null","null","null","null","null","null","null","","180","200","260","200","36000","52000","[2,3]"
"","canvas-keyboard-response","81","119587","0.0-6.0-3.12","24","","","","","clear_screen","null","null","","","catch","sw","sh","l","180","200","200","180","231","277","spektor","null","null","null","null","null","null","null","null","null","null","null","","180","200","260","200","36000","52000","[2,3]"
"","canvas-keyboard-response","82","120111","0.0-6.0-4.12","24","","","","","make choice","510","3","","","catch","sw","sh","l","180","200","200","180","231","277","spektor","null","null","null","null","null","null","null","null","null","null","null","","180","200","260","200","36000","52000","[2,3]"
"","canvas-keyboard-response","83","120269","0.0-6.0-5.12","24","","","","","clear_screen","null","null","","","catch","sw","sh","l","180","200","200","180","231","277","spektor","null","null","null","null","null","null","null","null","null","null","null","","180","200","260","200","36000","52000","[2,3]"
"","canvas-keyboard-response","84","120471","0.0-6.0-0.13","24","","","","","pre trial waiting period","null","null","","","critical","d","c","t","227.1683","158.0083","164","240","240","164","spektor","0.09","w","240","164","164","240","227.1683","158.0083","39360","39360","35894.4834","tc","null","null","null","null","null","null","[3,2]"
"","canvas-keyboard-response","85","120632","0.0-6.0-1.13","24","","","","","clear_screen","null","null","","","critical","d","c","t","227.1683","158.0083","164","240","240","164","spektor","0.09","w","240","164","164","240","227.1683","158.0083","39360","39360","35894.4834","tc","null","null","null","null","null","null","[3,2]"
"","canvas-keyboard-response","86","121968","0.0-6.0-2.13","24","","","","","rectangles","null","null","","","critical","d","c","t","227.1683","158.0083","164","240","240","164","spektor","0.09","w","240","164","164","240","227.1683","158.0083","39360","39360","35894.4834","tc","null","null","null","null","null","null","[3,2]"
"","canvas-keyboard-response","87","122132","0.0-6.0-3.13","24","","","","","clear_screen","null","null","","","critical","d","c","t","227.1683","158.0083","164","240","240","164","spektor","0.09","w","240","164","164","240","227.1683","158.0083","39360","39360","35894.4834","tc","null","null","null","null","null","null","[3,2]"
"","canvas-keyboard-response","88","122846","0.0-6.0-4.13","24","","","","","make choice","705","2","","","critical","d","c","t","227.1683","158.0083","164","240","240","164","spektor","0.09","w","240","164","164","240","227.1683","158.0083","39360","39360","35894.4834","tc","null","null","null","null","null","null","[3,2]"
"","canvas-keyboard-response","89","123005","0.0-6.0-5.13","24","","","","","clear_screen","null","null","","","critical","d","c","t","227.1683","158.0083","164","240","240","164","spektor","0.09","w","240","164","164","240","227.1683","158.0083","39360","39360","35894.4834","tc","null","null","null","null","null","null","[3,2]"
"","canvas-keyboard-response","90","123207","0.0-6.0-0.14","24","","","","","pre trial waiting period","null","null","","","critical","c","t","d","164","240","240","164","232.8713","160.6713","spektor","0.05","w","240","164","164","240","232.8713","160.6713","39360","39360","37415.7294","tc","null","null","null","null","null","null","[2,1]"
"","canvas-keyboard-response","91","123369","0.0-6.0-1.14","24","","","","","clear_screen","null","null","","","critical","c","t","d","164","240","240","164","232.8713","160.6713","spektor","0.05","w","240","164","164","240","232.8713","160.6713","39360","39360","37415.7294","tc","null","null","null","null","null","null","[2,1]"
"","canvas-keyboard-response","92","124709","0.0-6.0-2.14","24","","","","","rectangles","null","null","","","critical","c","t","d","164","240","240","164","232.8713","160.6713","spektor","0.05","w","240","164","164","240","232.8713","160.6713","39360","39360","37415.7294","tc","null","null","null","null","null","null","[2,1]"
"","canvas-keyboard-response","93","124872","0.0-6.0-3.14","24","","","","","clear_screen","null","null","","","critical","c","t","d","164","240","240","164","232.8713","160.6713","spektor","0.05","w","240","164","164","240","232.8713","160.6713","39360","39360","37415.7294","tc","null","null","null","null","null","null","[2,1]"
"","canvas-keyboard-response","94","125343","0.0-6.0-4.14","24","","","","","make choice","463","1","","","critical","c","t","d","164","240","240","164","232.8713","160.6713","spektor","0.05","w","240","164","164","240","232.8713","160.6713","39360","39360","37415.7294","tc","null","null","null","null","null","null","[2,1]"
"","canvas-keyboard-response","95","125502","0.0-6.0-5.14","24","","","","","clear_screen","null","null","","","critical","c","t","d","164","240","240","164","232.8713","160.6713","spektor","0.05","w","240","164","164","240","232.8713","160.6713","39360","39360","37415.7294","tc","null","null","null","null","null","null","[2,1]"
"","canvas-keyboard-response","96","125703","0.0-6.0-0.15","24","","","","","pre trial waiting period","null","null","","","catch","sh","l","sw","201","144","233","213","152","191","spektor","null","null","null","null","null","null","null","null","null","null","null","","180","200","260","200","36000","52000","[1,2]"
"","canvas-keyboard-response","97","125865","0.0-6.0-1.15","24","","","","","clear_screen","null","null","","","catch","sh","l","sw","201","144","233","213","152","191","spektor","null","null","null","null","null","null","null","null","null","null","null","","180","200","260","200","36000","52000","[1,2]"
"","canvas-keyboard-response","98","127201","0.0-6.0-2.15","24","","","","","rectangles","null","null","","","catch","sh","l","sw","201","144","233","213","152","191","spektor","null","null","null","null","null","null","null","null","null","null","null","","180","200","260","200","36000","52000","[1,2]"
"","canvas-keyboard-response","99","127363","0.0-6.0-3.15","24","","","","","clear_screen","null","null","","","catch","sh","l","sw","201","144","233","213","152","191","spektor","null","null","null","null","null","null","null","null","null","null","null","","180","200","260","200","36000","52000","[1,2]"
"","canvas-keyboard-response","100","127486","0.0-6.0-4.15","24","","","","","make choice","113","2","","","catch","sh","l","sw","201","144","233","213","152","191","spektor","null","null","null","null","null","null","null","null","null","null","null","","180","200","260","200","36000","52000","[1,2]"
"","canvas-keyboard-response","101","127645","0.0-6.0-5.15","24","","","","","clear_screen","null","null","","","catch","sh","l","sw","201","144","233","213","152","191","spektor","null","null","null","null","null","null","null","null","null","null","null","","180","200","260","200","36000","52000","[1,2]"
"","canvas-keyboard-response","102","127846","0.0-6.0-0.16","24","","","","","pre trial waiting period","null","null","","","catch","l","sw","sh","228","176","197","224","207","207","trueblood","null","null","null","null","null","null","null","null","null","null","null","","180","200","260","200","36000","52000","[1,3]"
"","canvas-keyboard-response","103","128011","0.0-6.0-1.16","24","","","","","clear_screen","null","null","","","catch","l","sw","sh","228","176","197","224","207","207","trueblood","null","null","null","null","null","null","null","null","null","null","null","","180","200","260","200","36000","52000","[1,3]"
"","canvas-keyboard-response","104","129350","0.0-6.0-2.16","24","","","","","rectangles","null","null","","","catch","l","sw","sh","228","176","197","224","207","207","trueblood","null","null","null","null","null","null","null","null","null","null","null","","180","200","260","200","36000","52000","[1,3]"
"","canvas-keyboard-response","105","129512","0.0-6.0-3.16","24","","","","","clear_screen","null","null","","","catch","l","sw","sh","228","176","197","224","207","207","trueblood","null","null","null","null","null","null","null","null","null","null","null","","180","200","260","200","36000","52000","[1,3]"
"","canvas-keyboard-response","106","130191","0.0-6.0-4.16","24","","","","","make choice","665","3","","","catch","l","sw","sh","228","176","197","224","207","207","trueblood","null","null","null","null","null","null","null","null","null","null","null","","180","200","260","200","36000","52000","[1,3]"
"","canvas-keyboard-response","107","130351","0.0-6.0-5.16","24","","","","","clear_screen","null","null","","","catch","l","sw","sh","228","176","197","224","207","207","trueblood","null","null","null","null","null","null","null","null","null","null","null","","180","200","260","200","36000","52000","[1,3]"
"","canvas-keyboard-response","108","130554","0.0-6.0-0.17","24","","","","","pre trial waiting period","null","null","","","catch","sh","sw","l","230","161","147","211","221","269","spektor","null","null","null","null","null","null","null","null","null","null","null","","180","200","260","200","36000","52000","[2,3]"
"","canvas-keyboard-response","109","130713","0.0-6.0-1.17","24","","","","","clear_screen","null","null","","","catch","sh","sw","l","230","161","147","211","221","269","spektor","null","null","null","null","null","null","null","null","null","null","null","","180","200","260","200","36000","52000","[2,3]"
"","canvas-keyboard-response","110","132051","0.0-6.0-2.17","24","","","","","rectangles","null","null","","","catch","sh","sw","l","230","161","147","211","221","269","spektor","null","null","null","null","null","null","null","null","null","null","null","","180","200","260","200","36000","52000","[2,3]"
"","canvas-keyboard-response","111","132212","0.0-6.0-3.17","24","","","","","clear_screen","null","null","","","catch","sh","sw","l","230","161","147","211","221","269","spektor","null","null","null","null","null","null","null","null","null","null","null","","180","200","260","200","36000","52000","[2,3]"
"","canvas-keyboard-response","112","132526","0.0-6.0-4.17","24","","","","","make choice","302","3","","","catch","sh","sw","l","230","161","147","211","221","269","spektor","null","null","null","null","null","null","null","null","null","null","null","","180","200","260","200","36000","52000","[2,3]"
"","canvas-keyboard-response","113","132687","0.0-6.0-5.17","24","","","","","clear_screen","null","null","","","catch","sh","sw","l","230","161","147","211","221","269","spektor","null","null","null","null","null","null","null","null","null","null","null","","180","200","260","200","36000","52000","[2,3]"
"","canvas-keyboard-response","114","132888","0.0-6.0-0.18","24","","","","","pre trial waiting period","null","null","","","critical","d","t","c","237.1485","162.6685","240","164","164","240","spektor","0.02","w","240","164","164","240","237.1485","162.6685","39360","39360","38576.5967","tc","null","null","null","null","null","null","[2,3]"
"","canvas-keyboard-response","115","133051","0.0-6.0-1.18","24","","","","","clear_screen","null","null","","","critical","d","t","c","237.1485","162.6685","240","164","164","240","spektor","0.02","w","240","164","164","240","237.1485","162.6685","39360","39360","38576.5967","tc","null","null","null","null","null","null","[2,3]"
"","canvas-keyboard-response","116","134391","0.0-6.0-2.18","24","","","","","rectangles","null","null","","","critical","d","t","c","237.1485","162.6685","240","164","164","240","spektor","0.02","w","240","164","164","240","237.1485","162.6685","39360","39360","38576.5967","tc","null","null","null","null","null","null","[2,3]"
"","canvas-keyboard-response","117","134549","0.0-6.0-3.18","24","","","","","clear_screen","null","null","","","critical","d","t","c","237.1485","162.6685","240","164","164","240","spektor","0.02","w","240","164","164","240","237.1485","162.6685","39360","39360","38576.5967","tc","null","null","null","null","null","null","[2,3]"
"","canvas-keyboard-response","118","135759","0.0-6.0-4.18","24","","","","","make choice","1200","3","","","critical","d","t","c","237.1485","162.6685","240","164","164","240","spektor","0.02","w","240","164","164","240","237.1485","162.6685","39360","39360","38576.5967","tc","null","null","null","null","null","null","[2,3]"
"","canvas-keyboard-response","119","135917","0.0-6.0-5.18","24","","","","","clear_screen","null","null","","","critical","d","t","c","237.1485","162.6685","240","164","164","240","spektor","0.02","w","240","164","164","240","237.1485","162.6685","39360","39360","38576.5967","tc","null","null","null","null","null","null","[2,3]"
"","canvas-keyboard-response","120","136118","0.0-6.0-0.19","24","","","","","pre trial waiting period","null","null","","","catch","sh","l","sw","169","168","295","237","205","232","spektor","null","null","null","null","null","null","null","null","null","null","null","","180","200","260","200","36000","52000","[2,3]"
"","canvas-keyboard-response","121","136282","0.0-6.0-1.19","24","","","","","clear_screen","null","null","","","catch","sh","l","sw","169","168","295","237","205","232","spektor","null","null","null","null","null","null","null","null","null","null","null","","180","200","260","200","36000","52000","[2,3]"
"","canvas-keyboard-response","122","137617","0.0-6.0-2.19","24","","","","","rectangles","null","null","","","catch","sh","l","sw","169","168","295","237","205","232","spektor","null","null","null","null","null","null","null","null","null","null","null","","180","200","260","200","36000","52000","[2,3]"
"","canvas-keyboard-response","123","137777","0.0-6.0-3.19","24","","","","","clear_screen","null","null","","","catch","sh","l","sw","169","168","295","237","205","232","spektor","null","null","null","null","null","null","null","null","null","null","null","","180","200","260","200","36000","52000","[2,3]"
"","canvas-keyboard-response","124","138199","0.0-6.0-4.19","24","","","","","make choice","412","2","","","catch","sh","l","sw","169","168","295","237","205","232","spektor","null","null","null","null","null","null","null","null","null","null","null","","180","200","260","200","36000","52000","[2,3]"
"","canvas-keyboard-response","125","138360","0.0-6.0-5.19","24","","","","","clear_screen","null","null","","","catch","sh","l","sw","169","168","295","237","205","232","spektor","null","null","null","null","null","null","null","null","null","null","null","","180","200","260","200","36000","52000","[2,3]"
"","canvas-keyboard-response","126","138562","0.0-6.0-0.20","24","","","","","pre trial waiting period","null","null","","","critical","t","c","d","164","240","240","164","160.6713","232.8713","spektor","0.05","h","164","240","240","164","160.6713","232.8713","39360","39360","37415.7294","dc","null","null","null","null","null","null","[3,2]"
"","canvas-keyboard-response","127","138724","0.0-6.0-1.20","24","","","","","clear_screen","null","null","","","critical","t","c","d","164","240","240","164","160.6713","232.8713","spektor","0.05","h","164","240","240","164","160.6713","232.8713","39360","39360","37415.7294","dc","null","null","null","null","null","null","[3,2]"
"","canvas-keyboard-response","128","140063","0.0-6.0-2.20","24","","","","","rectangles","null","null","","","critical","t","c","d","164","240","240","164","160.6713","232.8713","spektor","0.05","h","164","240","240","164","160.6713","232.8713","39360","39360","37415.7294","dc","null","null","null","null","null","null","[3,2]"
"","canvas-keyboard-response","129","140224","0.0-6.0-3.20","24","","","","","clear_screen","null","null","","","critical","t","c","d","164","240","240","164","160.6713","232.8713","spektor","0.05","h","164","240","240","164","160.6713","232.8713","39360","39360","37415.7294","dc","null","null","null","null","null","null","[3,2]"
"","canvas-keyboard-response","130","141662","0.0-6.0-4.20","24","","","","","make choice","1426","3","","","critical","t","c","d","164","240","240","164","160.6713","232.8713","spektor","0.05","h","164","240","240","164","160.6713","232.8713","39360","39360","37415.7294","dc","null","null","null","null","null","null","[3,2]"
"","canvas-keyboard-response","131","141824","0.0-6.0-5.20","24","","","","","clear_screen","null","null","","","critical","t","c","d","164","240","240","164","160.6713","232.8713","spektor","0.05","h","164","240","240","164","160.6713","232.8713","39360","39360","37415.7294","dc","null","null","null","null","null","null","[3,2]"
"","canvas-keyboard-response","132","142025","0.0-6.0-0.21","24","","","","","pre trial waiting period","null","null","","","critical","t","c","d","240","164","164","240","237.1485","162.6685","trueblood","0.02","w","240","164","164","240","237.1485","162.6685","39360","39360","38576.5967","tc","null","null","null","null","null","null","[1,2]"
"","canvas-keyboard-response","133","142187","0.0-6.0-1.21","24","","","","","clear_screen","null","null","","","critical","t","c","d","240","164","164","240","237.1485","162.6685","trueblood","0.02","w","240","164","164","240","237.1485","162.6685","39360","39360","38576.5967","tc","null","null","null","null","null","null","[1,2]"
"","canvas-keyboard-response","134","143524","0.0-6.0-2.21","24","","","","","rectangles","null","null","","","critical","t","c","d","240","164","164","240","237.1485","162.6685","trueblood","0.02","w","240","164","164","240","237.1485","162.6685","39360","39360","38576.5967","tc","null","null","null","null","null","null","[1,2]"
"","canvas-keyboard-response","135","143687","0.0-6.0-3.21","24","","","","","clear_screen","null","null","","","critical","t","c","d","240","164","164","240","237.1485","162.6685","trueblood","0.02","w","240","164","164","240","237.1485","162.6685","39360","39360","38576.5967","tc","null","null","null","null","null","null","[1,2]"
"","canvas-keyboard-response","136","145399","0.0-6.0-4.21","24","","","","","make choice","1702","1","","","critical","t","c","d","240","164","164","240","237.1485","162.6685","trueblood","0.02","w","240","164","164","240","237.1485","162.6685","39360","39360","38576.5967","tc","null","null","null","null","null","null","[1,2]"
"","canvas-keyboard-response","137","145560","0.0-6.0-5.21","24","","","","","clear_screen","null","null","","","critical","t","c","d","240","164","164","240","237.1485","162.6685","trueblood","0.02","w","240","164","164","240","237.1485","162.6685","39360","39360","38576.5967","tc","null","null","null","null","null","null","[1,2]"
"","canvas-keyboard-response","138","145761","0.0-6.0-0.22","24","","","","","pre trial waiting period","null","null","","","catch","l","sh","sw","182","290","164","191","161","179","spektor","null","null","null","null","null","null","null","null","null","null","null","","180","200","260","200","36000","52000","[1,3]"
"","canvas-keyboard-response","139","145924","0.0-6.0-1.22","24","","","","","clear_screen","null","null","","","catch","l","sh","sw","182","290","164","191","161","179","spektor","null","null","null","null","null","null","null","null","null","null","null","","180","200","260","200","36000","52000","[1,3]"
"","canvas-keyboard-response","140","147260","0.0-6.0-2.22","24","","","","","rectangles","null","null","","","catch","l","sh","sw","182","290","164","191","161","179","spektor","null","null","null","null","null","null","null","null","null","null","null","","180","200","260","200","36000","52000","[1,3]"
"","canvas-keyboard-response","141","147419","0.0-6.0-3.22","24","","","","","clear_screen","null","null","","","catch","l","sh","sw","182","290","164","191","161","179","spektor","null","null","null","null","null","null","null","null","null","null","null","","180","200","260","200","36000","52000","[1,3]"
"","canvas-keyboard-response","142","147719","0.0-6.0-4.22","24","","","","","make choice","286","1","","","catch","l","sh","sw","182","290","164","191","161","179","spektor","null","null","null","null","null","null","null","null","null","null","null","","180","200","260","200","36000","52000","[1,3]"
"","canvas-keyboard-response","143","147878","0.0-6.0-5.22","24","","","","","clear_screen","null","null","","","catch","l","sh","sw","182","290","164","191","161","179","spektor","null","null","null","null","null","null","null","null","null","null","null","","180","200","260","200","36000","52000","[1,3]"
"","canvas-keyboard-response","144","148079","0.0-6.0-0.23","24","","","","","pre trial waiting period","null","null","","","critical","c","t","d","164","240","240","164","232.8713","160.6713","trueblood","0.05","w","240","164","164","240","232.8713","160.6713","39360","39360","37415.7294","dc","null","null","null","null","null","null","[3,1]"
"","canvas-keyboard-response","145","148241","0.0-6.0-1.23","24","","","","","clear_screen","null","null","","","critical","c","t","d","164","240","240","164","232.8713","160.6713","trueblood","0.05","w","240","164","164","240","232.8713","160.6713","39360","39360","37415.7294","dc","null","null","null","null","null","null","[3,1]"
"","canvas-keyboard-response","146","149577","0.0-6.0-2.23","24","","","","","rectangles","null","null","","","critical","c","t","d","164","240","240","164","232.8713","160.6713","trueblood","0.05","w","240","164","164","240","232.8713","160.6713","39360","39360","37415.7294","dc","null","null","null","null","null","null","[3,1]"
"","canvas-keyboard-response","147","149741","0.0-6.0-3.23","24","","","","","clear_screen","null","null","","","critical","c","t","d","164","240","240","164","232.8713","160.6713","trueblood","0.05","w","240","164","164","240","232.8713","160.6713","39360","39360","37415.7294","dc","null","null","null","null","null","null","[3,1]"
"","canvas-keyboard-response","148","151399","0.0-6.0-4.23","24","","","","","make choice","1645","1","","","critical","c","t","d","164","240","240","164","232.8713","160.6713","trueblood","0.05","w","240","164","164","240","232.8713","160.6713","39360","39360","37415.7294","dc","null","null","null","null","null","null","[3,1]"
"","canvas-keyboard-response","149","151560","0.0-6.0-5.23","24","","","","","clear_screen","null","null","","","critical","c","t","d","164","240","240","164","232.8713","160.6713","trueblood","0.05","w","240","164","164","240","232.8713","160.6713","39360","39360","37415.7294","dc","null","null","null","null","null","null","[3,1]"
"","canvas-keyboard-response","150","151763","0.0-6.0-0.24","24","","","","","pre trial waiting period","null","null","","","critical","t","d","c","240","164","237.1485","162.6685","164","240","trueblood","0.02","w","240","164","164","240","237.1485","162.6685","39360","39360","38576.5967","dc","null","null","null","null","null","null","[2,3]"
"","canvas-keyboard-response","151","151927","0.0-6.0-1.24","24","","","","","clear_screen","null","null","","","critical","t","d","c","240","164","237.1485","162.6685","164","240","trueblood","0.02","w","240","164","164","240","237.1485","162.6685","39360","39360","38576.5967","dc","null","null","null","null","null","null","[2,3]"
"","canvas-keyboard-response","152","153268","0.0-6.0-2.24","24","","","","","rectangles","null","null","","","critical","t","d","c","240","164","237.1485","162.6685","164","240","trueblood","0.02","w","240","164","164","240","237.1485","162.6685","39360","39360","38576.5967","dc","null","null","null","null","null","null","[2,3]"
"","canvas-keyboard-response","153","153432","0.0-6.0-3.24","24","","","","","clear_screen","null","null","","","critical","t","d","c","240","164","237.1485","162.6685","164","240","trueblood","0.02","w","240","164","164","240","237.1485","162.6685","39360","39360","38576.5967","dc","null","null","null","null","null","null","[2,3]"
"","canvas-keyboard-response","154","153976","0.0-6.0-4.24","24","","","","","make choice","530","2","","","critical","t","d","c","240","164","237.1485","162.6685","164","240","trueblood","0.02","w","240","164","164","240","237.1485","162.6685","39360","39360","38576.5967","dc","null","null","null","null","null","null","[2,3]"
"","canvas-keyboard-response","155","154135","0.0-6.0-5.24","24","","","","","clear_screen","null","null","","","critical","t","d","c","240","164","237.1485","162.6685","164","240","trueblood","0.02","w","240","164","164","240","237.1485","162.6685","39360","39360","38576.5967","dc","null","null","null","null","null","null","[2,3]"
"","canvas-keyboard-response","156","154338","0.0-6.0-0.25","24","","","","","pre trial waiting period","null","null","","","critical","c","d","t","240","164","158.0083","227.1683","164","240","trueblood","0.09","h","164","240","240","164","158.0083","227.1683","39360","39360","35894.4834","dc","null","null","null","null","null","null","[2,1]"
"","canvas-keyboard-response","157","154501","0.0-6.0-1.25","24","","","","","clear_screen","null","null","","","critical","c","d","t","240","164","158.0083","227.1683","164","240","trueblood","0.09","h","164","240","240","164","158.0083","227.1683","39360","39360","35894.4834","dc","null","null","null","null","null","null","[2,1]"
"","canvas-keyboard-response","158","155840","0.0-6.0-2.25","24","","","","","rectangles","null","null","","","critical","c","d","t","240","164","158.0083","227.1683","164","240","trueblood","0.09","h","164","240","240","164","158.0083","227.1683","39360","39360","35894.4834","dc","null","null","null","null","null","null","[2,1]"
"","canvas-keyboard-response","159","156004","0.0-6.0-3.25","24","","","","","clear_screen","null","null","","","critical","c","d","t","240","164","158.0083","227.1683","164","240","trueblood","0.09","h","164","240","240","164","158.0083","227.1683","39360","39360","35894.4834","dc","null","null","null","null","null","null","[2,1]"
"","canvas-keyboard-response","160","156511","0.0-6.0-4.25","24","","","","","make choice","497","1","","","critical","c","d","t","240","164","158.0083","227.1683","164","240","trueblood","0.09","h","164","240","240","164","158.0083","227.1683","39360","39360","35894.4834","dc","null","null","null","null","null","null","[2,1]"
"","canvas-keyboard-response","161","156669","0.0-6.0-5.25","24","","","","","clear_screen","null","null","","","critical","c","d","t","240","164","158.0083","227.1683","164","240","trueblood","0.09","h","164","240","240","164","158.0083","227.1683","39360","39360","35894.4834","dc","null","null","null","null","null","null","[2,1]"
"","canvas-keyboard-response","162","156871","0.0-6.0-0.26","24","","","","","pre trial waiting period","null","null","","","critical","t","d","c","164","240","154.6796","220.0396","240","164","spektor","0.14","h","164","240","240","164","154.6796","220.0396","39360","39360","34035.6388","tc","null","null","null","null","null","null","[1,3]"
"","canvas-keyboard-response","163","157035","0.0-6.0-1.26","24","","","","","clear_screen","null","null","","","critical","t","d","c","164","240","154.6796","220.0396","240","164","spektor","0.14","h","164","240","240","164","154.6796","220.0396","39360","39360","34035.6388","tc","null","null","null","null","null","null","[1,3]"
"","canvas-keyboard-response","164","158375","0.0-6.0-2.26","24","","","","","rectangles","null","null","","","critical","t","d","c","164","240","154.6796","220.0396","240","164","spektor","0.14","h","164","240","240","164","154.6796","220.0396","39360","39360","34035.6388","tc","null","null","null","null","null","null","[1,3]"
"","canvas-keyboard-response","165","158540","0.0-6.0-3.26","24","","","","","clear_screen","null","null","","","critical","t","d","c","164","240","154.6796","220.0396","240","164","spektor","0.14","h","164","240","240","164","154.6796","220.0396","39360","39360","34035.6388","tc","null","null","null","null","null","null","[1,3]"
"","canvas-keyboard-response","166","159679","0.0-6.0-4.26","24","","","","","make choice","1126","3","","","critical","t","d","c","164","240","154.6796","220.0396","240","164","spektor","0.14","h","164","240","240","164","154.6796","220.0396","39360","39360","34035.6388","tc","null","null","null","null","null","null","[1,3]"
"","canvas-keyboard-response","167","159837","0.0-6.0-5.26","24","","","","","clear_screen","null","null","","","critical","t","d","c","164","240","154.6796","220.0396","240","164","spektor","0.14","h","164","240","240","164","154.6796","220.0396","39360","39360","34035.6388","tc","null","null","null","null","null","null","[1,3]"
"","canvas-keyboard-response","168","160040","0.0-6.0-0.27","24","","","","","pre trial waiting period","null","null","","","critical","t","c","d","164","240","240","164","154.6796","220.0396","trueblood","0.14","h","164","240","240","164","154.6796","220.0396","39360","39360","34035.6388","td","null","null","null","null","null","null","[1,3]"
"","canvas-keyboard-response","169","160203","0.0-6.0-1.27","24","","","","","clear_screen","null","null","","","critical","t","c","d","164","240","240","164","154.6796","220.0396","trueblood","0.14","h","164","240","240","164","154.6796","220.0396","39360","39360","34035.6388","td","null","null","null","null","null","null","[1,3]"
"","canvas-keyboard-response","170","161541","0.0-6.0-2.27","24","","","","","rectangles","null","null","","","critical","t","c","d","164","240","240","164","154.6796","220.0396","trueblood","0.14","h","164","240","240","164","154.6796","220.0396","39360","39360","34035.6388","td","null","null","null","null","null","null","[1,3]"
"","canvas-keyboard-response","171","161703","0.0-6.0-3.27","24","","","","","clear_screen","null","null","","","critical","t","c","d","164","240","240","164","154.6796","220.0396","trueblood","0.14","h","164","240","240","164","154.6796","220.0396","39360","39360","34035.6388","td","null","null","null","null","null","null","[1,3]"
"","canvas-keyboard-response","172","163072","0.0-6.0-4.27","24","","","","","make choice","1358","1","","","critical","t","c","d","164","240","240","164","154.6796","220.0396","trueblood","0.14","h","164","240","240","164","154.6796","220.0396","39360","39360","34035.6388","td","null","null","null","null","null","null","[1,3]"
"","canvas-keyboard-response","173","163233","0.0-6.0-5.27","24","","","","","clear_screen","null","null","","","critical","t","c","d","164","240","240","164","154.6796","220.0396","trueblood","0.14","h","164","240","240","164","154.6796","220.0396","39360","39360","34035.6388","td","null","null","null","null","null","null","[1,3]"
"","canvas-keyboard-response","174","163435","0.0-6.0-0.28","24","","","","","pre trial waiting period","null","null","","","critical","c","t","d","240","164","164","240","158.0083","227.1683","spektor","0.09","h","164","240","240","164","158.0083","227.1683","39360","39360","35894.4834","tc","null","null","null","null","null","null","[2,1]"
"","canvas-keyboard-response","175","163599","0.0-6.0-1.28","24","","","","","clear_screen","null","null","","","critical","c","t","d","240","164","164","240","158.0083","227.1683","spektor","0.09","h","164","240","240","164","158.0083","227.1683","39360","39360","35894.4834","tc","null","null","null","null","null","null","[2,1]"
"","canvas-keyboard-response","176","164939","0.0-6.0-2.28","24","","","","","rectangles","null","null","","","critical","c","t","d","240","164","164","240","158.0083","227.1683","spektor","0.09","h","164","240","240","164","158.0083","227.1683","39360","39360","35894.4834","tc","null","null","null","null","null","null","[2,1]"
"","canvas-keyboard-response","177","165099","0.0-6.0-3.28","24","","","","","clear_screen","null","null","","","critical","c","t","d","240","164","164","240","158.0083","227.1683","spektor","0.09","h","164","240","240","164","158.0083","227.1683","39360","39360","35894.4834","tc","null","null","null","null","null","null","[2,1]"
"","canvas-keyboard-response","178","165990","0.0-6.0-4.28","24","","","","","make choice","879","2","","","critical","c","t","d","240","164","164","240","158.0083","227.1683","spektor","0.09","h","164","240","240","164","158.0083","227.1683","39360","39360","35894.4834","tc","null","null","null","null","null","null","[2,1]"
"","canvas-keyboard-response","179","166150","0.0-6.0-5.28","24","","","","","clear_screen","null","null","","","critical","c","t","d","240","164","164","240","158.0083","227.1683","spektor","0.09","h","164","240","240","164","158.0083","227.1683","39360","39360","35894.4834","tc","null","null","null","null","null","null","[2,1]"
"","canvas-keyboard-response","180","166351","0.0-6.0-0.29","24","","","","","pre trial waiting period","null","null","","","critical","d","c","t","162.6685","237.1485","240","164","164","240","spektor","0.02","h","164","240","240","164","162.6685","237.1485","39360","39360","38576.5967","tc","null","null","null","null","null","null","[3,2]"
"","canvas-keyboard-response","181","166515","0.0-6.0-1.29","24","","","","","clear_screen","null","null","","","critical","d","c","t","162.6685","237.1485","240","164","164","240","spektor","0.02","h","164","240","240","164","162.6685","237.1485","39360","39360","38576.5967","tc","null","null","null","null","null","null","[3,2]"
"","canvas-keyboard-response","182","167855","0.0-6.0-2.29","24","","","","","rectangles","null","null","","","critical","d","c","t","162.6685","237.1485","240","164","164","240","spektor","0.02","h","164","240","240","164","162.6685","237.1485","39360","39360","38576.5967","tc","null","null","null","null","null","null","[3,2]"
"","canvas-keyboard-response","183","168019","0.0-6.0-3.29","24","","","","","clear_screen","null","null","","","critical","d","c","t","162.6685","237.1485","240","164","164","240","spektor","0.02","h","164","240","240","164","162.6685","237.1485","39360","39360","38576.5967","tc","null","null","null","null","null","null","[3,2]"
"","canvas-keyboard-response","184","168463","0.0-6.0-4.29","24","","","","","make choice","430","3","","","critical","d","c","t","162.6685","237.1485","240","164","164","240","spektor","0.02","h","164","240","240","164","162.6685","237.1485","39360","39360","38576.5967","tc","null","null","null","null","null","null","[3,2]"
"","canvas-keyboard-response","185","168629","0.0-6.0-5.29","24","","","","","clear_screen","null","null","","","critical","d","c","t","162.6685","237.1485","240","164","164","240","spektor","0.02","h","164","240","240","164","162.6685","237.1485","39360","39360","38576.5967","tc","null","null","null","null","null","null","[3,2]"
"","canvas-keyboard-response","186","168830","0.0-6.0-0.30","24","","","","","pre trial waiting period","null","null","","","critical","d","t","c","240","164","240","164","164","240","spektor","0","w","240","164","164","240","240","164","39360","39360","39360","dc","null","null","null","null","null","null","[1,3]"
"","canvas-keyboard-response","187","168995","0.0-6.0-1.30","24","","","","","clear_screen","null","null","","","critical","d","t","c","240","164","240","164","164","240","spektor","0","w","240","164","164","240","240","164","39360","39360","39360","dc","null","null","null","null","null","null","[1,3]"
"","canvas-keyboard-response","188","170334","0.0-6.0-2.30","24","","","","","rectangles","null","null","","","critical","d","t","c","240","164","240","164","164","240","spektor","0","w","240","164","164","240","240","164","39360","39360","39360","dc","null","null","null","null","null","null","[1,3]"
"","canvas-keyboard-response","189","170496","0.0-6.0-3.30","24","","","","","clear_screen","null","null","","","critical","d","t","c","240","164","240","164","164","240","spektor","0","w","240","164","164","240","240","164","39360","39360","39360","dc","null","null","null","null","null","null","[1,3]"
"","canvas-keyboard-response","190","171095","0.0-6.0-4.30","24","","","","","make choice","590","3","","","critical","d","t","c","240","164","240","164","164","240","spektor","0","w","240","164","164","240","240","164","39360","39360","39360","dc","null","null","null","null","null","null","[1,3]"
"","canvas-keyboard-response","191","171253","0.0-6.0-5.30","24","","","","","clear_screen","null","null","","","critical","d","t","c","240","164","240","164","164","240","spektor","0","w","240","164","164","240","240","164","39360","39360","39360","dc","null","null","null","null","null","null","[1,3]"
"","canvas-keyboard-response","192","171454","0.0-6.0-0.31","24","","","","","pre trial waiting period","null","null","","","critical","d","c","t","160.6713","232.8713","240","164","164","240","spektor","0.05","h","164","240","240","164","160.6713","232.8713","39360","39360","37415.7294","tc","null","null","null","null","null","null","[3,2]"
"","canvas-keyboard-response","193","171615","0.0-6.0-1.31","24","","","","","clear_screen","null","null","","","critical","d","c","t","160.6713","232.8713","240","164","164","240","spektor","0.05","h","164","240","240","164","160.6713","232.8713","39360","39360","37415.7294","tc","null","null","null","null","null","null","[3,2]"
"","canvas-keyboard-response","194","172951","0.0-6.0-2.31","24","","","","","rectangles","null","null","","","critical","d","c","t","160.6713","232.8713","240","164","164","240","spektor","0.05","h","164","240","240","164","160.6713","232.8713","39360","39360","37415.7294","tc","null","null","null","null","null","null","[3,2]"
"","canvas-keyboard-response","195","173115","0.0-6.0-3.31","24","","","","","clear_screen","null","null","","","critical","d","c","t","160.6713","232.8713","240","164","164","240","spektor","0.05","h","164","240","240","164","160.6713","232.8713","39360","39360","37415.7294","tc","null","null","null","null","null","null","[3,2]"
"","canvas-keyboard-response","196","174447","0.0-6.0-4.31","24","","","","","make choice","1321","3","","","critical","d","c","t","160.6713","232.8713","240","164","164","240","spektor","0.05","h","164","240","240","164","160.6713","232.8713","39360","39360","37415.7294","tc","null","null","null","null","null","null","[3,2]"
"","canvas-keyboard-response","197","174608","0.0-6.0-5.31","24","","","","","clear_screen","null","null","","","critical","d","c","t","160.6713","232.8713","240","164","164","240","spektor","0.05","h","164","240","240","164","160.6713","232.8713","39360","39360","37415.7294","tc","null","null","null","null","null","null","[3,2]"
"","canvas-keyboard-response","198","174809","0.0-6.0-0.32","24","","","","","pre trial waiting period","null","null","","","critical","t","d","c","164","240","154.6796","220.0396","240","164","trueblood","0.14","h","164","240","240","164","154.6796","220.0396","39360","39360","34035.6388","dc","null","null","null","null","null","null","[2,3]"
"","canvas-keyboard-response","199","174971","0.0-6.0-1.32","24","","","","","clear_screen","null","null","","","critical","t","d","c","164","240","154.6796","220.0396","240","164","trueblood","0.14","h","164","240","240","164","154.6796","220.0396","39360","39360","34035.6388","dc","null","null","null","null","null","null","[2,3]"
"","canvas-keyboard-response","200","176304","0.0-6.0-2.32","24","","","","","rectangles","null","null","","","critical","t","d","c","164","240","154.6796","220.0396","240","164","trueblood","0.14","h","164","240","240","164","154.6796","220.0396","39360","39360","34035.6388","dc","null","null","null","null","null","null","[2,3]"
"","canvas-keyboard-response","201","176467","0.0-6.0-3.32","24","","","","","clear_screen","null","null","","","critical","t","d","c","164","240","154.6796","220.0396","240","164","trueblood","0.14","h","164","240","240","164","154.6796","220.0396","39360","39360","34035.6388","dc","null","null","null","null","null","null","[2,3]"
"","canvas-keyboard-response","202","177695","0.0-6.0-4.32","24","","","","","make choice","1218","3","","","critical","t","d","c","164","240","154.6796","220.0396","240","164","trueblood","0.14","h","164","240","240","164","154.6796","220.0396","39360","39360","34035.6388","dc","null","null","null","null","null","null","[2,3]"
"","canvas-keyboard-response","203","177856","0.0-6.0-5.32","24","","","","","clear_screen","null","null","","","critical","t","d","c","164","240","154.6796","220.0396","240","164","trueblood","0.14","h","164","240","240","164","154.6796","220.0396","39360","39360","34035.6388","dc","null","null","null","null","null","null","[2,3]"
"","canvas-keyboard-response","204","178057","0.0-6.0-0.33","24","","","","","pre trial waiting period","null","null","","","critical","t","c","d","240","164","164","240","220.0396","154.6796","spektor","0.14","w","240","164","164","240","220.0396","154.6796","39360","39360","34035.6388","td","null","null","null","null","null","null","[1,3]"
"","canvas-keyboard-response","205","178218","0.0-6.0-1.33","24","","","","","clear_screen","null","null","","","critical","t","c","d","240","164","164","240","220.0396","154.6796","spektor","0.14","w","240","164","164","240","220.0396","154.6796","39360","39360","34035.6388","td","null","null","null","null","null","null","[1,3]"
"","canvas-keyboard-response","206","179559","0.0-6.0-2.33","24","","","","","rectangles","null","null","","","critical","t","c","d","240","164","164","240","220.0396","154.6796","spektor","0.14","w","240","164","164","240","220.0396","154.6796","39360","39360","34035.6388","td","null","null","null","null","null","null","[1,3]"
"","canvas-keyboard-response","207","179717","0.0-6.0-3.33","24","","","","","clear_screen","null","null","","","critical","t","c","d","240","164","164","240","220.0396","154.6796","spektor","0.14","w","240","164","164","240","220.0396","154.6796","39360","39360","34035.6388","td","null","null","null","null","null","null","[1,3]"
"","canvas-keyboard-response","208","180744","0.0-6.0-4.33","24","","","","","make choice","1013","1","","","critical","t","c","d","240","164","164","240","220.0396","154.6796","spektor","0.14","w","240","164","164","240","220.0396","154.6796","39360","39360","34035.6388","td","null","null","null","null","null","null","[1,3]"
"","canvas-keyboard-response","209","180903","0.0-6.0-5.33","24","","","","","clear_screen","null","null","","","critical","t","c","d","240","164","164","240","220.0396","154.6796","spektor","0.14","w","240","164","164","240","220.0396","154.6796","39360","39360","34035.6388","td","null","null","null","null","null","null","[1,3]"
"","canvas-keyboard-response","210","181104","0.0-6.0-0.34","24","","","","","pre trial waiting period","null","null","","","critical","t","c","d","164","240","240","164","162.6685","237.1485","trueblood","0.02","h","164","240","240","164","162.6685","237.1485","39360","39360","38576.5967","td","null","null","null","null","null","null","[1,3]"
"","canvas-keyboard-response","211","181265","0.0-6.0-1.34","24","","","","","clear_screen","null","null","","","critical","t","c","d","164","240","240","164","162.6685","237.1485","trueblood","0.02","h","164","240","240","164","162.6685","237.1485","39360","39360","38576.5967","td","null","null","null","null","null","null","[1,3]"
"","canvas-keyboard-response","212","182604","0.0-6.0-2.34","24","","","","","rectangles","null","null","","","critical","t","c","d","164","240","240","164","162.6685","237.1485","trueblood","0.02","h","164","240","240","164","162.6685","237.1485","39360","39360","38576.5967","td","null","null","null","null","null","null","[1,3]"
"","canvas-keyboard-response","213","182763","0.0-6.0-3.34","24","","","","","clear_screen","null","null","","","critical","t","c","d","164","240","240","164","162.6685","237.1485","trueblood","0.02","h","164","240","240","164","162.6685","237.1485","39360","39360","38576.5967","td","null","null","null","null","null","null","[1,3]"
"","canvas-keyboard-response","214","184367","0.0-6.0-4.34","24","","","","","make choice","1595","3","","","critical","t","c","d","164","240","240","164","162.6685","237.1485","trueblood","0.02","h","164","240","240","164","162.6685","237.1485","39360","39360","38576.5967","td","null","null","null","null","null","null","[1,3]"
"","canvas-keyboard-response","215","184526","0.0-6.0-5.34","24","","","","","clear_screen","null","null","","","critical","t","c","d","164","240","240","164","162.6685","237.1485","trueblood","0.02","h","164","240","240","164","162.6685","237.1485","39360","39360","38576.5967","td","null","null","null","null","null","null","[1,3]"
"","canvas-keyboard-response","216","184728","0.0-6.0-0.35","24","","","","","pre trial waiting period","null","null","","","critical","c","d","t","164","240","232.8713","160.6713","240","164","spektor","0.05","w","240","164","164","240","232.8713","160.6713","39360","39360","37415.7294","td","null","null","null","null","null","null","[3,2]"
"","canvas-keyboard-response","217","184892","0.0-6.0-1.35","24","","","","","clear_screen","null","null","","","critical","c","d","t","164","240","232.8713","160.6713","240","164","spektor","0.05","w","240","164","164","240","232.8713","160.6713","39360","39360","37415.7294","td","null","null","null","null","null","null","[3,2]"
"","canvas-keyboard-response","218","186228","0.0-6.0-2.35","24","","","","","rectangles","null","null","","","critical","c","d","t","164","240","232.8713","160.6713","240","164","spektor","0.05","w","240","164","164","240","232.8713","160.6713","39360","39360","37415.7294","td","null","null","null","null","null","null","[3,2]"
"","canvas-keyboard-response","219","186388","0.0-6.0-3.35","24","","","","","clear_screen","null","null","","","critical","c","d","t","164","240","232.8713","160.6713","240","164","spektor","0.05","w","240","164","164","240","232.8713","160.6713","39360","39360","37415.7294","td","null","null","null","null","null","null","[3,2]"
"","canvas-keyboard-response","220","187286","0.0-6.0-4.35","24","","","","","make choice","886","2","","","critical","c","d","t","164","240","232.8713","160.6713","240","164","spektor","0.05","w","240","164","164","240","232.8713","160.6713","39360","39360","37415.7294","td","null","null","null","null","null","null","[3,2]"
"","canvas-keyboard-response","221","187448","0.0-6.0-5.35","24","","","","","clear_screen","null","null","","","critical","c","d","t","164","240","232.8713","160.6713","240","164","spektor","0.05","w","240","164","164","240","232.8713","160.6713","39360","39360","37415.7294","td","null","null","null","null","null","null","[3,2]"
"","canvas-keyboard-response","222","187649","0.0-6.0-0.36","24","","","","","pre trial waiting period","null","null","","","critical","c","d","t","164","240","237.1485","162.6685","240","164","spektor","0.02","w","240","164","164","240","237.1485","162.6685","39360","39360","38576.5967","td","null","null","null","null","null","null","[3,2]"
"","canvas-keyboard-response","223","187809","0.0-6.0-1.36","24","","","","","clear_screen","null","null","","","critical","c","d","t","164","240","237.1485","162.6685","240","164","spektor","0.02","w","240","164","164","240","237.1485","162.6685","39360","39360","38576.5967","td","null","null","null","null","null","null","[3,2]"
"","canvas-keyboard-response","224","189148","0.0-6.0-2.36","24","","","","","rectangles","null","null","","","critical","c","d","t","164","240","237.1485","162.6685","240","164","spektor","0.02","w","240","164","164","240","237.1485","162.6685","39360","39360","38576.5967","td","null","null","null","null","null","null","[3,2]"
"","canvas-keyboard-response","225","189312","0.0-6.0-3.36","24","","","","","clear_screen","null","null","","","critical","c","d","t","164","240","237.1485","162.6685","240","164","spektor","0.02","w","240","164","164","240","237.1485","162.6685","39360","39360","38576.5967","td","null","null","null","null","null","null","[3,2]"
"","canvas-keyboard-response","226","189991","0.0-6.0-4.36","24","","","","","make choice","665","3","","","critical","c","d","t","164","240","237.1485","162.6685","240","164","spektor","0.02","w","240","164","164","240","237.1485","162.6685","39360","39360","38576.5967","td","null","null","null","null","null","null","[3,2]"
"","canvas-keyboard-response","227","190150","0.0-6.0-5.36","24","","","","","clear_screen","null","null","","","critical","c","d","t","164","240","237.1485","162.6685","240","164","spektor","0.02","w","240","164","164","240","237.1485","162.6685","39360","39360","38576.5967","td","null","null","null","null","null","null","[3,2]"
"","canvas-keyboard-response","228","190351","0.0-6.0-0.37","24","","","","","pre trial waiting period","null","null","","","critical","t","d","c","164","240","160.6713","232.8713","240","164","trueblood","0.05","h","164","240","240","164","160.6713","232.8713","39360","39360","37415.7294","td","null","null","null","null","null","null","[1,2]"
"","canvas-keyboard-response","229","190515","0.0-6.0-1.37","24","","","","","clear_screen","null","null","","","critical","t","d","c","164","240","160.6713","232.8713","240","164","trueblood","0.05","h","164","240","240","164","160.6713","232.8713","39360","39360","37415.7294","td","null","null","null","null","null","null","[1,2]"
"","canvas-keyboard-response","230","191852","0.0-6.0-2.37","24","","","","","rectangles","null","null","","","critical","t","d","c","164","240","160.6713","232.8713","240","164","trueblood","0.05","h","164","240","240","164","160.6713","232.8713","39360","39360","37415.7294","td","null","null","null","null","null","null","[1,2]"
"","canvas-keyboard-response","231","192012","0.0-6.0-3.37","24","","","","","clear_screen","null","null","","","critical","t","d","c","164","240","160.6713","232.8713","240","164","trueblood","0.05","h","164","240","240","164","160.6713","232.8713","39360","39360","37415.7294","td","null","null","null","null","null","null","[1,2]"
"","canvas-keyboard-response","232","192759","0.0-6.0-4.37","24","","","","","make choice","733","2","","","critical","t","d","c","164","240","160.6713","232.8713","240","164","trueblood","0.05","h","164","240","240","164","160.6713","232.8713","39360","39360","37415.7294","td","null","null","null","null","null","null","[1,2]"
"","canvas-keyboard-response","233","192917","0.0-6.0-5.37","24","","","","","clear_screen","null","null","","","critical","t","d","c","164","240","160.6713","232.8713","240","164","trueblood","0.05","h","164","240","240","164","160.6713","232.8713","39360","39360","37415.7294","td","null","null","null","null","null","null","[1,2]"
"","canvas-keyboard-response","234","193119","0.0-6.0-0.38","24","","","","","pre trial waiting period","null","null","","","critical","t","d","c","164","240","164","240","240","164","spektor","0","h","164","240","240","164","164","240","39360","39360","39360","td","null","null","null","null","null","null","[1,2]"
"","canvas-keyboard-response","235","193279","0.0-6.0-1.38","24","","","","","clear_screen","null","null","","","critical","t","d","c","164","240","164","240","240","164","spektor","0","h","164","240","240","164","164","240","39360","39360","39360","td","null","null","null","null","null","null","[1,2]"
"","canvas-keyboard-response","236","194619","0.0-6.0-2.38","24","","","","","rectangles","null","null","","","critical","t","d","c","164","240","164","240","240","164","spektor","0","h","164","240","240","164","164","240","39360","39360","39360","td","null","null","null","null","null","null","[1,2]"
"","canvas-keyboard-response","237","194779","0.0-6.0-3.38","24","","","","","clear_screen","null","null","","","critical","t","d","c","164","240","164","240","240","164","spektor","0","h","164","240","240","164","164","240","39360","39360","39360","td","null","null","null","null","null","null","[1,2]"
"","canvas-keyboard-response","238","195207","0.0-6.0-4.38","24","","","","","make choice","416","2","","","critical","t","d","c","164","240","164","240","240","164","spektor","0","h","164","240","240","164","164","240","39360","39360","39360","td","null","null","null","null","null","null","[1,2]"
"","canvas-keyboard-response","239","195366","0.0-6.0-5.38","24","","","","","clear_screen","null","null","","","critical","t","d","c","164","240","164","240","240","164","spektor","0","h","164","240","240","164","164","240","39360","39360","39360","td","null","null","null","null","null","null","[1,2]"
"","canvas-keyboard-response","240","195567","0.0-6.0-0.39","24","","","","","pre trial waiting period","null","null","","","critical","c","d","t","240","164","158.0083","227.1683","164","240","trueblood","0.09","h","164","240","240","164","158.0083","227.1683","39360","39360","35894.4834","tc","null","null","null","null","null","null","[3,1]"
"","canvas-keyboard-response","241","195731","0.0-6.0-1.39","24","","","","","clear_screen","null","null","","","critical","c","d","t","240","164","158.0083","227.1683","164","240","trueblood","0.09","h","164","240","240","164","158.0083","227.1683","39360","39360","35894.4834","tc","null","null","null","null","null","null","[3,1]"
"","canvas-keyboard-response","242","197070","0.0-6.0-2.39","24","","","","","rectangles","null","null","","","critical","c","d","t","240","164","158.0083","227.1683","164","240","trueblood","0.09","h","164","240","240","164","158.0083","227.1683","39360","39360","35894.4834","tc","null","null","null","null","null","null","[3,1]"
"","canvas-keyboard-response","243","197232","0.0-6.0-3.39","24","","","","","clear_screen","null","null","","","critical","c","d","t","240","164","158.0083","227.1683","164","240","trueblood","0.09","h","164","240","240","164","158.0083","227.1683","39360","39360","35894.4834","tc","null","null","null","null","null","null","[3,1]"
"","canvas-keyboard-response","244","197903","0.0-6.0-4.39","24","","","","","make choice","661","1","","","critical","c","d","t","240","164","158.0083","227.1683","164","240","trueblood","0.09","h","164","240","240","164","158.0083","227.1683","39360","39360","35894.4834","tc","null","null","null","null","null","null","[3,1]"
"","canvas-keyboard-response","245","198064","0.0-6.0-5.39","24","","","","","clear_screen","null","null","","","critical","c","d","t","240","164","158.0083","227.1683","164","240","trueblood","0.09","h","164","240","240","164","158.0083","227.1683","39360","39360","35894.4834","tc","null","null","null","null","null","null","[3,1]"
"","canvas-keyboard-response","246","198266","0.0-6.0-0.40","24","","","","","pre trial waiting period","null","null","","","critical","d","c","t","154.6796","220.0396","240","164","164","240","spektor","0.14","h","164","240","240","164","154.6796","220.0396","39360","39360","34035.6388","td","null","null","null","null","null","null","[3,1]"
"","canvas-keyboard-response","247","198429","0.0-6.0-1.40","24","","","","","clear_screen","null","null","","","critical","d","c","t","154.6796","220.0396","240","164","164","240","spektor","0.14","h","164","240","240","164","154.6796","220.0396","39360","39360","34035.6388","td","null","null","null","null","null","null","[3,1]"
"","canvas-keyboard-response","248","199764","0.0-6.0-2.40","24","","","","","rectangles","null","null","","","critical","d","c","t","154.6796","220.0396","240","164","164","240","spektor","0.14","h","164","240","240","164","154.6796","220.0396","39360","39360","34035.6388","td","null","null","null","null","null","null","[3,1]"
"","canvas-keyboard-response","249","199923","0.0-6.0-3.40","24","","","","","clear_screen","null","null","","","critical","d","c","t","154.6796","220.0396","240","164","164","240","spektor","0.14","h","164","240","240","164","154.6796","220.0396","39360","39360","34035.6388","td","null","null","null","null","null","null","[3,1]"
"","canvas-keyboard-response","250","200391","0.0-6.0-4.40","24","","","","","make choice","454","3","","","critical","d","c","t","154.6796","220.0396","240","164","164","240","spektor","0.14","h","164","240","240","164","154.6796","220.0396","39360","39360","34035.6388","td","null","null","null","null","null","null","[3,1]"
"","canvas-keyboard-response","251","200552","0.0-6.0-5.40","24","","","","","clear_screen","null","null","","","critical","d","c","t","154.6796","220.0396","240","164","164","240","spektor","0.14","h","164","240","240","164","154.6796","220.0396","39360","39360","34035.6388","td","null","null","null","null","null","null","[3,1]"
"","canvas-keyboard-response","252","200752","0.0-6.0-0.41","24","","","","","pre trial waiting period","null","null","","","critical","t","d","c","164","240","164","240","240","164","trueblood","0","h","164","240","240","164","164","240","39360","39360","39360","td","null","null","null","null","null","null","[1,2]"
"","canvas-keyboard-response","253","200915","0.0-6.0-1.41","24","","","","","clear_screen","null","null","","","critical","t","d","c","164","240","164","240","240","164","trueblood","0","h","164","240","240","164","164","240","39360","39360","39360","td","null","null","null","null","null","null","[1,2]"
"","canvas-keyboard-response","254","202255","0.0-6.0-2.41","24","","","","","rectangles","null","null","","","critical","t","d","c","164","240","164","240","240","164","trueblood","0","h","164","240","240","164","164","240","39360","39360","39360","td","null","null","null","null","null","null","[1,2]"
"","canvas-keyboard-response","255","202416","0.0-6.0-3.41","24","","","","","clear_screen","null","null","","","critical","t","d","c","164","240","164","240","240","164","trueblood","0","h","164","240","240","164","164","240","39360","39360","39360","td","null","null","null","null","null","null","[1,2]"
"","canvas-keyboard-response","256","203079","0.0-6.0-4.41","24","","","","","make choice","649","2","","","critical","t","d","c","164","240","164","240","240","164","trueblood","0","h","164","240","240","164","164","240","39360","39360","39360","td","null","null","null","null","null","null","[1,2]"
"","canvas-keyboard-response","257","203237","0.0-6.0-5.41","24","","","","","clear_screen","null","null","","","critical","t","d","c","164","240","164","240","240","164","trueblood","0","h","164","240","240","164","164","240","39360","39360","39360","td","null","null","null","null","null","null","[1,2]"
"","canvas-keyboard-response","258","203439","0.0-6.0-0.42","24","","","","","pre trial waiting period","null","null","","","catch","sw","l","sh","180","200","261","186","195","175","spektor","null","null","null","null","null","null","null","null","null","null","null","","180","200","260","200","36000","52000","[2,3]"
"","canvas-keyboard-response","259","203601","0.0-6.0-1.42","24","","","","","clear_screen","null","null","","","catch","sw","l","sh","180","200","261","186","195","175","spektor","null","null","null","null","null","null","null","null","null","null","null","","180","200","260","200","36000","52000","[2,3]"
"","canvas-keyboard-response","260","204937","0.0-6.0-2.42","24","","","","","rectangles","null","null","","","catch","sw","l","sh","180","200","261","186","195","175","spektor","null","null","null","null","null","null","null","null","null","null","null","","180","200","260","200","36000","52000","[2,3]"
"","canvas-keyboard-response","261","205099","0.0-6.0-3.42","24","","","","","clear_screen","null","null","","","catch","sw","l","sh","180","200","261","186","195","175","spektor","null","null","null","null","null","null","null","null","null","null","null","","180","200","260","200","36000","52000","[2,3]"
"","canvas-keyboard-response","262","206055","0.0-6.0-4.42","24","","","","","make choice","945","2","","","catch","sw","l","sh","180","200","261","186","195","175","spektor","null","null","null","null","null","null","null","null","null","null","null","","180","200","260","200","36000","52000","[2,3]"
"","canvas-keyboard-response","263","206213","0.0-6.0-5.42","24","","","","","clear_screen","null","null","","","catch","sw","l","sh","180","200","261","186","195","175","spektor","null","null","null","null","null","null","null","null","null","null","null","","180","200","260","200","36000","52000","[2,3]"
"","canvas-keyboard-response","264","206414","0.0-6.0-0.43","24","","","","","pre trial waiting period","null","null","","","catch","sw","sh","l","180","200","220","165","225","190","trueblood","null","null","null","null","null","null","null","null","null","null","null","","180","200","260","200","36000","52000","[1,3]"
"","canvas-keyboard-response","265","206580","0.0-6.0-1.43","24","","","","","clear_screen","null","null","","","catch","sw","sh","l","180","200","220","165","225","190","trueblood","null","null","null","null","null","null","null","null","null","null","null","","180","200","260","200","36000","52000","[1,3]"
"","canvas-keyboard-response","266","207916","0.0-6.0-2.43","24","","","","","rectangles","null","null","","","catch","sw","sh","l","180","200","220","165","225","190","trueblood","null","null","null","null","null","null","null","null","null","null","null","","180","200","260","200","36000","52000","[1,3]"
"","canvas-keyboard-response","267","208076","0.0-6.0-3.43","24","","","","","clear_screen","null","null","","","catch","sw","sh","l","180","200","220","165","225","190","trueblood","null","null","null","null","null","null","null","null","null","null","null","","180","200","260","200","36000","52000","[1,3]"
"","canvas-keyboard-response","268","208543","0.0-6.0-4.43","24","","","","","make choice","459","3","","","catch","sw","sh","l","180","200","220","165","225","190","trueblood","null","null","null","null","null","null","null","null","null","null","null","","180","200","260","200","36000","52000","[1,3]"
"","canvas-keyboard-response","269","208704","0.0-6.0-5.43","24","","","","","clear_screen","null","null","","","catch","sw","sh","l","180","200","220","165","225","190","trueblood","null","null","null","null","null","null","null","null","null","null","null","","180","200","260","200","36000","52000","[1,3]"
"","canvas-keyboard-response","270","208905","0.0-6.0-0.44","24","","","","","pre trial waiting period","null","null","","","critical","t","c","d","240","164","164","240","227.1683","158.0083","spektor","0.09","w","240","164","164","240","227.1683","158.0083","39360","39360","35894.4834","td","null","null","null","null","null","null","[1,3]"
"","canvas-keyboard-response","271","209068","0.0-6.0-1.44","24","","","","","clear_screen","null","null","","","critical","t","c","d","240","164","164","240","227.1683","158.0083","spektor","0.09","w","240","164","164","240","227.1683","158.0083","39360","39360","35894.4834","td","null","null","null","null","null","null","[1,3]"
"","canvas-keyboard-response","272","210402","0.0-6.0-2.44","24","","","","","rectangles","null","null","","","critical","t","c","d","240","164","164","240","227.1683","158.0083","spektor","0.09","w","240","164","164","240","227.1683","158.0083","39360","39360","35894.4834","td","null","null","null","null","null","null","[1,3]"
"","canvas-keyboard-response","273","210564","0.0-6.0-3.44","24","","","","","clear_screen","null","null","","","critical","t","c","d","240","164","164","240","227.1683","158.0083","spektor","0.09","w","240","164","164","240","227.1683","158.0083","39360","39360","35894.4834","td","null","null","null","null","null","null","[1,3]"
"","canvas-keyboard-response","274","211590","0.0-6.0-4.44","24","","","","","make choice","1014","1","","","critical","t","c","d","240","164","164","240","227.1683","158.0083","spektor","0.09","w","240","164","164","240","227.1683","158.0083","39360","39360","35894.4834","td","null","null","null","null","null","null","[1,3]"
"","canvas-keyboard-response","275","211751","0.0-6.0-5.44","24","","","","","clear_screen","null","null","","","critical","t","c","d","240","164","164","240","227.1683","158.0083","spektor","0.09","w","240","164","164","240","227.1683","158.0083","39360","39360","35894.4834","td","null","null","null","null","null","null","[1,3]"
"","canvas-keyboard-response","276","211952","0.0-6.0-0.45","24","","","","","pre trial waiting period","null","null","","","critical","c","d","t","164","240","227.1683","158.0083","240","164","trueblood","0.09","w","240","164","164","240","227.1683","158.0083","39360","39360","35894.4834","td","null","null","null","null","null","null","[3,2]"
"","canvas-keyboard-response","277","212116","0.0-6.0-1.45","24","","","","","clear_screen","null","null","","","critical","c","d","t","164","240","227.1683","158.0083","240","164","trueblood","0.09","w","240","164","164","240","227.1683","158.0083","39360","39360","35894.4834","td","null","null","null","null","null","null","[3,2]"
"","canvas-keyboard-response","278","213455","0.0-6.0-2.45","24","","","","","rectangles","null","null","","","critical","c","d","t","164","240","227.1683","158.0083","240","164","trueblood","0.09","w","240","164","164","240","227.1683","158.0083","39360","39360","35894.4834","td","null","null","null","null","null","null","[3,2]"
"","canvas-keyboard-response","279","213619","0.0-6.0-3.45","24","","","","","clear_screen","null","null","","","critical","c","d","t","164","240","227.1683","158.0083","240","164","trueblood","0.09","w","240","164","164","240","227.1683","158.0083","39360","39360","35894.4834","td","null","null","null","null","null","null","[3,2]"
"","canvas-keyboard-response","280","214438","0.0-6.0-4.45","24","","","","","make choice","811","3","","","critical","c","d","t","164","240","227.1683","158.0083","240","164","trueblood","0.09","w","240","164","164","240","227.1683","158.0083","39360","39360","35894.4834","td","null","null","null","null","null","null","[3,2]"
"","canvas-keyboard-response","281","214599","0.0-6.0-5.45","24","","","","","clear_screen","null","null","","","critical","c","d","t","164","240","227.1683","158.0083","240","164","trueblood","0.09","w","240","164","164","240","227.1683","158.0083","39360","39360","35894.4834","td","null","null","null","null","null","null","[3,2]"
"","canvas-keyboard-response","282","214800","0.0-6.0-0.46","24","","","","","pre trial waiting period","null","null","","","critical","d","c","t","232.8713","160.6713","164","240","240","164","trueblood","0.05","w","240","164","164","240","232.8713","160.6713","39360","39360","37415.7294","td","null","null","null","null","null","null","[3,1]"
"","canvas-keyboard-response","283","214963","0.0-6.0-1.46","24","","","","","clear_screen","null","null","","","critical","d","c","t","232.8713","160.6713","164","240","240","164","trueblood","0.05","w","240","164","164","240","232.8713","160.6713","39360","39360","37415.7294","td","null","null","null","null","null","null","[3,1]"
"","canvas-keyboard-response","284","216299","0.0-6.0-2.46","24","","","","","rectangles","null","null","","","critical","d","c","t","232.8713","160.6713","164","240","240","164","trueblood","0.05","w","240","164","164","240","232.8713","160.6713","39360","39360","37415.7294","td","null","null","null","null","null","null","[3,1]"
"","canvas-keyboard-response","285","216461","0.0-6.0-3.46","24","","","","","clear_screen","null","null","","","critical","d","c","t","232.8713","160.6713","164","240","240","164","trueblood","0.05","w","240","164","164","240","232.8713","160.6713","39360","39360","37415.7294","td","null","null","null","null","null","null","[3,1]"
"","canvas-keyboard-response","286","216967","0.0-6.0-4.46","24","","","","","make choice","494","3","","","critical","d","c","t","232.8713","160.6713","164","240","240","164","trueblood","0.05","w","240","164","164","240","232.8713","160.6713","39360","39360","37415.7294","td","null","null","null","null","null","null","[3,1]"
"","canvas-keyboard-response","287","217129","0.0-6.0-5.46","24","","","","","clear_screen","null","null","","","critical","d","c","t","232.8713","160.6713","164","240","240","164","trueblood","0.05","w","240","164","164","240","232.8713","160.6713","39360","39360","37415.7294","td","null","null","null","null","null","null","[3,1]"
"","canvas-keyboard-response","288","217331","0.0-6.0-0.47","24","","","","","pre trial waiting period","null","null","","","critical","t","d","c","164","240","160.6713","232.8713","240","164","spektor","0.05","h","164","240","240","164","160.6713","232.8713","39360","39360","37415.7294","td","null","null","null","null","null","null","[1,2]"
"","canvas-keyboard-response","289","217493","0.0-6.0-1.47","24","","","","","clear_screen","null","null","","","critical","t","d","c","164","240","160.6713","232.8713","240","164","spektor","0.05","h","164","240","240","164","160.6713","232.8713","39360","39360","37415.7294","td","null","null","null","null","null","null","[1,2]"
"","canvas-keyboard-response","290","218830","0.0-6.0-2.47","24","","","","","rectangles","null","null","","","critical","t","d","c","164","240","160.6713","232.8713","240","164","spektor","0.05","h","164","240","240","164","160.6713","232.8713","39360","39360","37415.7294","td","null","null","null","null","null","null","[1,2]"
"","canvas-keyboard-response","291","218991","0.0-6.0-3.47","24","","","","","clear_screen","null","null","","","critical","t","d","c","164","240","160.6713","232.8713","240","164","spektor","0.05","h","164","240","240","164","160.6713","232.8713","39360","39360","37415.7294","td","null","null","null","null","null","null","[1,2]"
"","canvas-keyboard-response","292","219528","0.0-6.0-4.47","24","","","","","make choice","522","2","","","critical","t","d","c","164","240","160.6713","232.8713","240","164","spektor","0.05","h","164","240","240","164","160.6713","232.8713","39360","39360","37415.7294","td","null","null","null","null","null","null","[1,2]"
"","canvas-keyboard-response","293","219689","0.0-6.0-5.47","24","","","","","clear_screen","null","null","","","critical","t","d","c","164","240","160.6713","232.8713","240","164","spektor","0.05","h","164","240","240","164","160.6713","232.8713","39360","39360","37415.7294","td","null","null","null","null","null","null","[1,2]"
"","canvas-keyboard-response","294","219891","0.0-6.0-0.48","24","","","","","pre trial waiting period","null","null","","","catch","sh","sw","l","198","209","198","190","269","216","trueblood","null","null","null","null","null","null","null","null","null","null","null","","180","200","260","200","36000","52000","[1,3]"
"","canvas-keyboard-response","295","220053","0.0-6.0-1.48","24","","","","","clear_screen","null","null","","","catch","sh","sw","l","198","209","198","190","269","216","trueblood","null","null","null","null","null","null","null","null","null","null","null","","180","200","260","200","36000","52000","[1,3]"
"","canvas-keyboard-response","296","221390","0.0-6.0-2.48","24","","","","","rectangles","null","null","","","catch","sh","sw","l","198","209","198","190","269","216","trueblood","null","null","null","null","null","null","null","null","null","null","null","","180","200","260","200","36000","52000","[1,3]"
"","canvas-keyboard-response","297","221552","0.0-6.0-3.48","24","","","","","clear_screen","null","null","","","catch","sh","sw","l","198","209","198","190","269","216","trueblood","null","null","null","null","null","null","null","null","null","null","null","","180","200","260","200","36000","52000","[1,3]"
"","canvas-keyboard-response","298","222079","0.0-6.0-4.48","24","","","","","make choice","520","3","","","catch","sh","sw","l","198","209","198","190","269","216","trueblood","null","null","null","null","null","null","null","null","null","null","null","","180","200","260","200","36000","52000","[1,3]"
"","canvas-keyboard-response","299","222240","0.0-6.0-5.48","24","","","","","clear_screen","null","null","","","catch","sh","sw","l","198","209","198","190","269","216","trueblood","null","null","null","null","null","null","null","null","null","null","null","","180","200","260","200","36000","52000","[1,3]"
"","canvas-keyboard-response","300","222441","0.0-6.0-0.49","24","","","","","pre trial waiting period","null","null","","","critical","d","c","t","164","240","240","164","164","240","spektor","0","h","164","240","240","164","164","240","39360","39360","39360","dc","null","null","null","null","null","null","[1,2]"
"","canvas-keyboard-response","301","222607","0.0-6.0-1.49","24","","","","","clear_screen","null","null","","","critical","d","c","t","164","240","240","164","164","240","spektor","0","h","164","240","240","164","164","240","39360","39360","39360","dc","null","null","null","null","null","null","[1,2]"
"","canvas-keyboard-response","302","223944","0.0-6.0-2.49","24","","","","","rectangles","null","null","","","critical","d","c","t","164","240","240","164","164","240","spektor","0","h","164","240","240","164","164","240","39360","39360","39360","dc","null","null","null","null","null","null","[1,2]"
"","canvas-keyboard-response","303","224104","0.0-6.0-3.49","24","","","","","clear_screen","null","null","","","critical","d","c","t","164","240","240","164","164","240","spektor","0","h","164","240","240","164","164","240","39360","39360","39360","dc","null","null","null","null","null","null","[1,2]"
"","canvas-keyboard-response","304","224791","0.0-6.0-4.49","24","","","","","make choice","676","1","","","critical","d","c","t","164","240","240","164","164","240","spektor","0","h","164","240","240","164","164","240","39360","39360","39360","dc","null","null","null","null","null","null","[1,2]"
"","canvas-keyboard-response","305","224949","0.0-6.0-5.49","24","","","","","clear_screen","null","null","","","critical","d","c","t","164","240","240","164","164","240","spektor","0","h","164","240","240","164","164","240","39360","39360","39360","dc","null","null","null","null","null","null","[1,2]"
"","canvas-keyboard-response","306","225151","0.0-6.0-0.50","24","","","","","pre trial waiting period","null","null","","","critical","c","d","t","164","240","220.0396","154.6796","240","164","spektor","0.14","w","240","164","164","240","220.0396","154.6796","39360","39360","34035.6388","dc","null","null","null","null","null","null","[2,1]"
