"success","trial_type","trial_index","time_elapsed","internal_node_id","sub_n","timeout","failed_images","failed_audio","failed_video","screen_id","rt","response","stimulus","view_history","trial","r1","r2","r3","w1","h1","w2","h2","w3","h3","display","tdd","tdo","tw","th","cw","ch","dw","dh","ta","ca","da","probe","csls","csss","clls","clss","sa","la","probe_rects"
"true","fullscreen","0","2954","0.0-0.0","37","","","","","","","","","","","","","","","","","","","","","","","","","","","","","","","","","","","","","","",""
"true","preload","1","2968","0.0-1.0","37","false","[]","[]","[]","img preload","","","","","","","","","","","","","","","","","","","","","","","","","","","","","","","","","",""
"","survey-html-form","2","21616","0.0-2.0","37","","","","","enter-sub-number","18640","{""response"":""37""}","","","","","","","","","","","","","","","","","","","","","","","","","","","","","","","",""
"","image-button-response","3","105259","0.0-3.0","37","","","","","","83579","0","consent.png","","","","","","","","","","","","","","","","","","","","","","","","","","","","","","",""
"","html-button-response","4","123697","0.0-4.0","37","","","","","intro mssg","18434","0","<div style= ""font-size:25px;"" <p> <strong> Welcome! </strong><br> <p style=""color:#8B0000; font-size:25px;""><strong> Please do NOT exit full screen until you are done with the experiment. </strong> </p><p style=""font-size:25px;color:#8B0000;""> <strong> Your data will be lost <br> if you try to go back or refresh the page after the experiment starts. Feel free to click ""previous"" during the instructions, however.</strong> </p><br><p> <strong> Thanks in advance for your contribution to our research! </strong></p>","","","","","","","","","","","","","","","","","","","","","","","","","","","","","","",""
"","instructions","5","177186","0.0-5.0","37","","","","","instructions","53484","","","[{""page_index"":0,""viewing_time"":10588},{""page_index"":1,""viewing_time"":7439},{""page_index"":2,""viewing_time"":7671},{""page_index"":3,""viewing_time"":13074},{""page_index"":4,""viewing_time"":6361},{""page_index"":5,""viewing_time"":2535},{""page_index"":6,""viewing_time"":3424},{""page_index"":7,""viewing_time"":2392}]","","","","","","","","","","","","","","","","","","","","","","","","","","","","","",""
"","canvas-keyboard-response","6","177390","0.0-6.0-0.0","37","","","","","pre trial waiting period","null","null","","","critical","c","d","t","240","164","162.6685","237.1485","164","240","trueblood","0.02","h","164","240","240","164","162.6685","237.1485","39360","39360","38576.5967","tc","null","null","null","null","null","null","[3,1]"
"","canvas-keyboard-response","7","177552","0.0-6.0-1.0","37","","","","","clear_screen","null","null","","","critical","c","d","t","240","164","162.6685","237.1485","164","240","trueblood","0.02","h","164","240","240","164","162.6685","237.1485","39360","39360","38576.5967","tc","null","null","null","null","null","null","[3,1]"
"","canvas-keyboard-response","8","178890","0.0-6.0-2.0","37","","","","","rectangles","null","null","","","critical","c","d","t","240","164","162.6685","237.1485","164","240","trueblood","0.02","h","164","240","240","164","162.6685","237.1485","39360","39360","38576.5967","tc","null","null","null","null","null","null","[3,1]"
"","canvas-keyboard-response","9","179050","0.0-6.0-3.0","37","","","","","clear_screen","null","null","","","critical","c","d","t","240","164","162.6685","237.1485","164","240","trueblood","0.02","h","164","240","240","164","162.6685","237.1485","39360","39360","38576.5967","tc","null","null","null","null","null","null","[3,1]"
"","canvas-keyboard-response","10","181794","0.0-6.0-4.0","37","","","","","make choice","2731","3","","","critical","c","d","t","240","164","162.6685","237.1485","164","240","trueblood","0.02","h","164","240","240","164","162.6685","237.1485","39360","39360","38576.5967","tc","null","null","null","null","null","null","[3,1]"
"","canvas-keyboard-response","11","181951","0.0-6.0-5.0","37","","","","","clear_screen","null","null","","","critical","c","d","t","240","164","162.6685","237.1485","164","240","trueblood","0.02","h","164","240","240","164","162.6685","237.1485","39360","39360","38576.5967","tc","null","null","null","null","null","null","[3,1]"
"","canvas-keyboard-response","12","182154","0.0-6.0-0.1","37","","","","","pre trial waiting period","null","null","","","catch","sh","sw","l","172","191","175","197","186","228","trueblood","null","null","null","null","null","null","null","null","null","null","null","","180","200","260","200","36000","52000","[2,3]"
"","canvas-keyboard-response","13","182318","0.0-6.0-1.1","37","","","","","clear_screen","null","null","","","catch","sh","sw","l","172","191","175","197","186","228","trueblood","null","null","null","null","null","null","null","null","null","null","null","","180","200","260","200","36000","52000","[2,3]"
"","canvas-keyboard-response","14","183655","0.0-6.0-2.1","37","","","","","rectangles","null","null","","","catch","sh","sw","l","172","191","175","197","186","228","trueblood","null","null","null","null","null","null","null","null","null","null","null","","180","200","260","200","36000","52000","[2,3]"
"","canvas-keyboard-response","15","183816","0.0-6.0-3.1","37","","","","","clear_screen","null","null","","","catch","sh","sw","l","172","191","175","197","186","228","trueblood","null","null","null","null","null","null","null","null","null","null","null","","180","200","260","200","36000","52000","[2,3]"
"","canvas-keyboard-response","16","184609","0.0-6.0-4.1","37","","","","","make choice","780","3","","","catch","sh","sw","l","172","191","175","197","186","228","trueblood","null","null","null","null","null","null","null","null","null","null","null","","180","200","260","200","36000","52000","[2,3]"
"","canvas-keyboard-response","17","184770","0.0-6.0-5.1","37","","","","","clear_screen","null","null","","","catch","sh","sw","l","172","191","175","197","186","228","trueblood","null","null","null","null","null","null","null","null","null","null","null","","180","200","260","200","36000","52000","[2,3]"
"","canvas-keyboard-response","18","184973","0.0-6.0-0.2","37","","","","","pre trial waiting period","null","null","","","critical","t","c","d","164","240","240","164","154.6796","220.0396","trueblood","0.14","h","164","240","240","164","154.6796","220.0396","39360","39360","34035.6388","tc","null","null","null","null","null","null","[1,2]"
"","canvas-keyboard-response","19","185135","0.0-6.0-1.2","37","","","","","clear_screen","null","null","","","critical","t","c","d","164","240","240","164","154.6796","220.0396","trueblood","0.14","h","164","240","240","164","154.6796","220.0396","39360","39360","34035.6388","tc","null","null","null","null","null","null","[1,2]"
"","canvas-keyboard-response","20","186473","0.0-6.0-2.2","37","","","","","rectangles","null","null","","","critical","t","c","d","164","240","240","164","154.6796","220.0396","trueblood","0.14","h","164","240","240","164","154.6796","220.0396","39360","39360","34035.6388","tc","null","null","null","null","null","null","[1,2]"
"","canvas-keyboard-response","21","186633","0.0-6.0-3.2","37","","","","","clear_screen","null","null","","","critical","t","c","d","164","240","240","164","154.6796","220.0396","trueblood","0.14","h","164","240","240","164","154.6796","220.0396","39360","39360","34035.6388","tc","null","null","null","null","null","null","[1,2]"
"","canvas-keyboard-response","22","188058","0.0-6.0-4.2","37","","","","","make choice","1414","2","","","critical","t","c","d","164","240","240","164","154.6796","220.0396","trueblood","0.14","h","164","240","240","164","154.6796","220.0396","39360","39360","34035.6388","tc","null","null","null","null","null","null","[1,2]"
"","canvas-keyboard-response","23","188216","0.0-6.0-5.2","37","","","","","clear_screen","null","null","","","critical","t","c","d","164","240","240","164","154.6796","220.0396","trueblood","0.14","h","164","240","240","164","154.6796","220.0396","39360","39360","34035.6388","tc","null","null","null","null","null","null","[1,2]"
"","canvas-keyboard-response","24","188419","0.0-6.0-0.3","37","","","","","pre trial waiting period","null","null","","","critical","t","d","c","164","240","154.6796","220.0396","240","164","spektor","0.14","h","164","240","240","164","154.6796","220.0396","39360","39360","34035.6388","td","null","null","null","null","null","null","[1,2]"
"","canvas-keyboard-response","25","188579","0.0-6.0-1.3","37","","","","","clear_screen","null","null","","","critical","t","d","c","164","240","154.6796","220.0396","240","164","spektor","0.14","h","164","240","240","164","154.6796","220.0396","39360","39360","34035.6388","td","null","null","null","null","null","null","[1,2]"
"","canvas-keyboard-response","26","189917","0.0-6.0-2.3","37","","","","","rectangles","null","null","","","critical","t","d","c","164","240","154.6796","220.0396","240","164","spektor","0.14","h","164","240","240","164","154.6796","220.0396","39360","39360","34035.6388","td","null","null","null","null","null","null","[1,2]"
"","canvas-keyboard-response","27","190081","0.0-6.0-3.3","37","","","","","clear_screen","null","null","","","critical","t","d","c","164","240","154.6796","220.0396","240","164","spektor","0.14","h","164","240","240","164","154.6796","220.0396","39360","39360","34035.6388","td","null","null","null","null","null","null","[1,2]"
"","canvas-keyboard-response","28","191217","0.0-6.0-4.3","37","","","","","make choice","1129","1","","","critical","t","d","c","164","240","154.6796","220.0396","240","164","spektor","0.14","h","164","240","240","164","154.6796","220.0396","39360","39360","34035.6388","td","null","null","null","null","null","null","[1,2]"
"","canvas-keyboard-response","29","191376","0.0-6.0-5.3","37","","","","","clear_screen","null","null","","","critical","t","d","c","164","240","154.6796","220.0396","240","164","spektor","0.14","h","164","240","240","164","154.6796","220.0396","39360","39360","34035.6388","td","null","null","null","null","null","null","[1,2]"
"","canvas-keyboard-response","30","191578","0.0-6.0-0.4","37","","","","","pre trial waiting period","null","null","","","catch","sh","sw","l","200","186","177","184","197","266","trueblood","null","null","null","null","null","null","null","null","null","null","null","","180","200","260","200","36000","52000","[1,3]"
"","canvas-keyboard-response","31","191740","0.0-6.0-1.4","37","","","","","clear_screen","null","null","","","catch","sh","sw","l","200","186","177","184","197","266","trueblood","null","null","null","null","null","null","null","null","null","null","null","","180","200","260","200","36000","52000","[1,3]"
"","canvas-keyboard-response","32","193076","0.0-6.0-2.4","37","","","","","rectangles","null","null","","","catch","sh","sw","l","200","186","177","184","197","266","trueblood","null","null","null","null","null","null","null","null","null","null","null","","180","200","260","200","36000","52000","[1,3]"
"","canvas-keyboard-response","33","193239","0.0-6.0-3.4","37","","","","","clear_screen","null","null","","","catch","sh","sw","l","200","186","177","184","197","266","trueblood","null","null","null","null","null","null","null","null","null","null","null","","180","200","260","200","36000","52000","[1,3]"
"","canvas-keyboard-response","34","193889","0.0-6.0-4.4","37","","","","","make choice","640","3","","","catch","sh","sw","l","200","186","177","184","197","266","trueblood","null","null","null","null","null","null","null","null","null","null","null","","180","200","260","200","36000","52000","[1,3]"
"","canvas-keyboard-response","35","194049","0.0-6.0-5.4","37","","","","","clear_screen","null","null","","","catch","sh","sw","l","200","186","177","184","197","266","trueblood","null","null","null","null","null","null","null","null","null","null","null","","180","200","260","200","36000","52000","[1,3]"
"","canvas-keyboard-response","36","194250","0.0-6.0-0.5","37","","","","","pre trial waiting period","null","null","","","critical","d","c","t","162.6685","237.1485","240","164","164","240","spektor","0.02","h","164","240","240","164","162.6685","237.1485","39360","39360","38576.5967","dc","null","null","null","null","null","null","[1,2]"
"","canvas-keyboard-response","37","194410","0.0-6.0-1.5","37","","","","","clear_screen","null","null","","","critical","d","c","t","162.6685","237.1485","240","164","164","240","spektor","0.02","h","164","240","240","164","162.6685","237.1485","39360","39360","38576.5967","dc","null","null","null","null","null","null","[1,2]"
"","canvas-keyboard-response","38","195749","0.0-6.0-2.5","37","","","","","rectangles","null","null","","","critical","d","c","t","162.6685","237.1485","240","164","164","240","spektor","0.02","h","164","240","240","164","162.6685","237.1485","39360","39360","38576.5967","dc","null","null","null","null","null","null","[1,2]"
"","canvas-keyboard-response","39","195912","0.0-6.0-3.5","37","","","","","clear_screen","null","null","","","critical","d","c","t","162.6685","237.1485","240","164","164","240","spektor","0.02","h","164","240","240","164","162.6685","237.1485","39360","39360","38576.5967","dc","null","null","null","null","null","null","[1,2]"
"","canvas-keyboard-response","40","197361","0.0-6.0-4.5","37","","","","","make choice","1441","2","","","critical","d","c","t","162.6685","237.1485","240","164","164","240","spektor","0.02","h","164","240","240","164","162.6685","237.1485","39360","39360","38576.5967","dc","null","null","null","null","null","null","[1,2]"
"","canvas-keyboard-response","41","197520","0.0-6.0-5.5","37","","","","","clear_screen","null","null","","","critical","d","c","t","162.6685","237.1485","240","164","164","240","spektor","0.02","h","164","240","240","164","162.6685","237.1485","39360","39360","38576.5967","dc","null","null","null","null","null","null","[1,2]"
"","canvas-keyboard-response","42","197722","0.0-6.0-0.6","37","","","","","pre trial waiting period","null","null","","","critical","d","c","t","227.1683","158.0083","164","240","240","164","trueblood","0.09","w","240","164","164","240","227.1683","158.0083","39360","39360","35894.4834","tc","null","null","null","null","null","null","[3,2]"
"","canvas-keyboard-response","43","197881","0.0-6.0-1.6","37","","","","","clear_screen","null","null","","","critical","d","c","t","227.1683","158.0083","164","240","240","164","trueblood","0.09","w","240","164","164","240","227.1683","158.0083","39360","39360","35894.4834","tc","null","null","null","null","null","null","[3,2]"
"","canvas-keyboard-response","44","199220","0.0-6.0-2.6","37","","","","","rectangles","null","null","","","critical","d","c","t","227.1683","158.0083","164","240","240","164","trueblood","0.09","w","240","164","164","240","227.1683","158.0083","39360","39360","35894.4834","tc","null","null","null","null","null","null","[3,2]"
"","canvas-keyboard-response","45","199381","0.0-6.0-3.6","37","","","","","clear_screen","null","null","","","critical","d","c","t","227.1683","158.0083","164","240","240","164","trueblood","0.09","w","240","164","164","240","227.1683","158.0083","39360","39360","35894.4834","tc","null","null","null","null","null","null","[3,2]"
"","canvas-keyboard-response","46","200376","0.0-6.0-4.6","37","","","","","make choice","987","3","","","critical","d","c","t","227.1683","158.0083","164","240","240","164","trueblood","0.09","w","240","164","164","240","227.1683","158.0083","39360","39360","35894.4834","tc","null","null","null","null","null","null","[3,2]"
"","canvas-keyboard-response","47","200537","0.0-6.0-5.6","37","","","","","clear_screen","null","null","","","critical","d","c","t","227.1683","158.0083","164","240","240","164","trueblood","0.09","w","240","164","164","240","227.1683","158.0083","39360","39360","35894.4834","tc","null","null","null","null","null","null","[3,2]"
"","canvas-keyboard-response","48","200737","0.0-6.0-0.7","37","","","","","pre trial waiting period","null","null","","","critical","d","t","c","232.8713","160.6713","240","164","164","240","spektor","0.05","w","240","164","164","240","232.8713","160.6713","39360","39360","37415.7294","tc","null","null","null","null","null","null","[2,3]"
"","canvas-keyboard-response","49","200897","0.0-6.0-1.7","37","","","","","clear_screen","null","null","","","critical","d","t","c","232.8713","160.6713","240","164","164","240","spektor","0.05","w","240","164","164","240","232.8713","160.6713","39360","39360","37415.7294","tc","null","null","null","null","null","null","[2,3]"
"","canvas-keyboard-response","50","202232","0.0-6.0-2.7","37","","","","","rectangles","null","null","","","critical","d","t","c","232.8713","160.6713","240","164","164","240","spektor","0.05","w","240","164","164","240","232.8713","160.6713","39360","39360","37415.7294","tc","null","null","null","null","null","null","[2,3]"
"","canvas-keyboard-response","51","202393","0.0-6.0-3.7","37","","","","","clear_screen","null","null","","","critical","d","t","c","232.8713","160.6713","240","164","164","240","spektor","0.05","w","240","164","164","240","232.8713","160.6713","39360","39360","37415.7294","tc","null","null","null","null","null","null","[2,3]"
"","canvas-keyboard-response","52","203337","0.0-6.0-4.7","37","","","","","make choice","932","3","","","critical","d","t","c","232.8713","160.6713","240","164","164","240","spektor","0.05","w","240","164","164","240","232.8713","160.6713","39360","39360","37415.7294","tc","null","null","null","null","null","null","[2,3]"
"","canvas-keyboard-response","53","203499","0.0-6.0-5.7","37","","","","","clear_screen","null","null","","","critical","d","t","c","232.8713","160.6713","240","164","164","240","spektor","0.05","w","240","164","164","240","232.8713","160.6713","39360","39360","37415.7294","tc","null","null","null","null","null","null","[2,3]"
"","canvas-keyboard-response","54","203699","0.0-6.0-0.8","37","","","","","pre trial waiting period","null","null","","","critical","c","t","d","164","240","240","164","240","164","trueblood","0","w","240","164","164","240","240","164","39360","39360","39360","tc","null","null","null","null","null","null","[2,1]"
"","canvas-keyboard-response","55","203858","0.0-6.0-1.8","37","","","","","clear_screen","null","null","","","critical","c","t","d","164","240","240","164","240","164","trueblood","0","w","240","164","164","240","240","164","39360","39360","39360","tc","null","null","null","null","null","null","[2,1]"
"","canvas-keyboard-response","56","205193","0.0-6.0-2.8","37","","","","","rectangles","null","null","","","critical","c","t","d","164","240","240","164","240","164","trueblood","0","w","240","164","164","240","240","164","39360","39360","39360","tc","null","null","null","null","null","null","[2,1]"
"","canvas-keyboard-response","57","205353","0.0-6.0-3.8","37","","","","","clear_screen","null","null","","","critical","c","t","d","164","240","240","164","240","164","trueblood","0","w","240","164","164","240","240","164","39360","39360","39360","tc","null","null","null","null","null","null","[2,1]"
"","canvas-keyboard-response","58","206688","0.0-6.0-4.8","37","","","","","make choice","1324","2","","","critical","c","t","d","164","240","240","164","240","164","trueblood","0","w","240","164","164","240","240","164","39360","39360","39360","tc","null","null","null","null","null","null","[2,1]"
"","canvas-keyboard-response","59","206845","0.0-6.0-5.8","37","","","","","clear_screen","null","null","","","critical","c","t","d","164","240","240","164","240","164","trueblood","0","w","240","164","164","240","240","164","39360","39360","39360","tc","null","null","null","null","null","null","[2,1]"
"","canvas-keyboard-response","60","207046","0.0-6.0-0.9","37","","","","","pre trial waiting period","null","null","","","critical","d","t","c","220.0396","154.6796","240","164","164","240","spektor","0.14","w","240","164","164","240","220.0396","154.6796","39360","39360","34035.6388","td","null","null","null","null","null","null","[2,1]"
"","canvas-keyboard-response","61","207205","0.0-6.0-1.9","37","","","","","clear_screen","null","null","","","critical","d","t","c","220.0396","154.6796","240","164","164","240","spektor","0.14","w","240","164","164","240","220.0396","154.6796","39360","39360","34035.6388","td","null","null","null","null","null","null","[2,1]"
"","canvas-keyboard-response","62","208535","0.0-6.0-2.9","37","","","","","rectangles","null","null","","","critical","d","t","c","220.0396","154.6796","240","164","164","240","spektor","0.14","w","240","164","164","240","220.0396","154.6796","39360","39360","34035.6388","td","null","null","null","null","null","null","[2,1]"
"","canvas-keyboard-response","63","208696","0.0-6.0-3.9","37","","","","","clear_screen","null","null","","","critical","d","t","c","220.0396","154.6796","240","164","164","240","spektor","0.14","w","240","164","164","240","220.0396","154.6796","39360","39360","34035.6388","td","null","null","null","null","null","null","[2,1]"
"","canvas-keyboard-response","64","209808","0.0-6.0-4.9","37","","","","","make choice","1106","2","","","critical","d","t","c","220.0396","154.6796","240","164","164","240","spektor","0.14","w","240","164","164","240","220.0396","154.6796","39360","39360","34035.6388","td","null","null","null","null","null","null","[2,1]"
"","canvas-keyboard-response","65","209966","0.0-6.0-5.9","37","","","","","clear_screen","null","null","","","critical","d","t","c","220.0396","154.6796","240","164","164","240","spektor","0.14","w","240","164","164","240","220.0396","154.6796","39360","39360","34035.6388","td","null","null","null","null","null","null","[2,1]"
"","canvas-keyboard-response","66","210167","0.0-6.0-0.10","37","","","","","pre trial waiting period","null","null","","","critical","t","c","d","240","164","164","240","232.8713","160.6713","trueblood","0.05","w","240","164","164","240","232.8713","160.6713","39360","39360","37415.7294","dc","null","null","null","null","null","null","[3,2]"
"","canvas-keyboard-response","67","210329","0.0-6.0-1.10","37","","","","","clear_screen","null","null","","","critical","t","c","d","240","164","164","240","232.8713","160.6713","trueblood","0.05","w","240","164","164","240","232.8713","160.6713","39360","39360","37415.7294","dc","null","null","null","null","null","null","[3,2]"
"","canvas-keyboard-response","68","211667","0.0-6.0-2.10","37","","","","","rectangles","null","null","","","critical","t","c","d","240","164","164","240","232.8713","160.6713","trueblood","0.05","w","240","164","164","240","232.8713","160.6713","39360","39360","37415.7294","dc","null","null","null","null","null","null","[3,2]"
"","canvas-keyboard-response","69","211829","0.0-6.0-3.10","37","","","","","clear_screen","null","null","","","critical","t","c","d","240","164","164","240","232.8713","160.6713","trueblood","0.05","w","240","164","164","240","232.8713","160.6713","39360","39360","37415.7294","dc","null","null","null","null","null","null","[3,2]"
"","canvas-keyboard-response","70","213266","0.0-6.0-4.10","37","","","","","make choice","1428","3","","","critical","t","c","d","240","164","164","240","232.8713","160.6713","trueblood","0.05","w","240","164","164","240","232.8713","160.6713","39360","39360","37415.7294","dc","null","null","null","null","null","null","[3,2]"
"","canvas-keyboard-response","71","213424","0.0-6.0-5.10","37","","","","","clear_screen","null","null","","","critical","t","c","d","240","164","164","240","232.8713","160.6713","trueblood","0.05","w","240","164","164","240","232.8713","160.6713","39360","39360","37415.7294","dc","null","null","null","null","null","null","[3,2]"
"","canvas-keyboard-response","72","213626","0.0-6.0-0.11","37","","","","","pre trial waiting period","null","null","","","critical","t","c","d","240","164","164","240","220.0396","154.6796","trueblood","0.14","w","240","164","164","240","220.0396","154.6796","39360","39360","34035.6388","tc","null","null","null","null","null","null","[1,2]"
"","canvas-keyboard-response","73","213786","0.0-6.0-1.11","37","","","","","clear_screen","null","null","","","critical","t","c","d","240","164","164","240","220.0396","154.6796","trueblood","0.14","w","240","164","164","240","220.0396","154.6796","39360","39360","34035.6388","tc","null","null","null","null","null","null","[1,2]"
"","canvas-keyboard-response","74","215124","0.0-6.0-2.11","37","","","","","rectangles","null","null","","","critical","t","c","d","240","164","164","240","220.0396","154.6796","trueblood","0.14","w","240","164","164","240","220.0396","154.6796","39360","39360","34035.6388","tc","null","null","null","null","null","null","[1,2]"
"","canvas-keyboard-response","75","215282","0.0-6.0-3.11","37","","","","","clear_screen","null","null","","","critical","t","c","d","240","164","164","240","220.0396","154.6796","trueblood","0.14","w","240","164","164","240","220.0396","154.6796","39360","39360","34035.6388","tc","null","null","null","null","null","null","[1,2]"
"","canvas-keyboard-response","76","217082","0.0-6.0-4.11","37","","","","","make choice","1788","1","","","critical","t","c","d","240","164","164","240","220.0396","154.6796","trueblood","0.14","w","240","164","164","240","220.0396","154.6796","39360","39360","34035.6388","tc","null","null","null","null","null","null","[1,2]"
"","canvas-keyboard-response","77","217240","0.0-6.0-5.11","37","","","","","clear_screen","null","null","","","critical","t","c","d","240","164","164","240","220.0396","154.6796","trueblood","0.14","w","240","164","164","240","220.0396","154.6796","39360","39360","34035.6388","tc","null","null","null","null","null","null","[1,2]"
"","canvas-keyboard-response","78","217442","0.0-6.0-0.12","37","","","","","pre trial waiting period","null","null","","","critical","c","t","d","164","240","240","164","237.1485","162.6685","spektor","0.02","w","240","164","164","240","237.1485","162.6685","39360","39360","38576.5967","tc","null","null","null","null","null","null","[2,1]"
"","canvas-keyboard-response","79","217601","0.0-6.0-1.12","37","","","","","clear_screen","null","null","","","critical","c","t","d","164","240","240","164","237.1485","162.6685","spektor","0.02","w","240","164","164","240","237.1485","162.6685","39360","39360","38576.5967","tc","null","null","null","null","null","null","[2,1]"
"","canvas-keyboard-response","80","218937","0.0-6.0-2.12","37","","","","","rectangles","null","null","","","critical","c","t","d","164","240","240","164","237.1485","162.6685","spektor","0.02","w","240","164","164","240","237.1485","162.6685","39360","39360","38576.5967","tc","null","null","null","null","null","null","[2,1]"
"","canvas-keyboard-response","81","219100","0.0-6.0-3.12","37","","","","","clear_screen","null","null","","","critical","c","t","d","164","240","240","164","237.1485","162.6685","spektor","0.02","w","240","164","164","240","237.1485","162.6685","39360","39360","38576.5967","tc","null","null","null","null","null","null","[2,1]"
"","canvas-keyboard-response","82","219898","0.0-6.0-4.12","37","","","","","make choice","787","1","","","critical","c","t","d","164","240","240","164","237.1485","162.6685","spektor","0.02","w","240","164","164","240","237.1485","162.6685","39360","39360","38576.5967","tc","null","null","null","null","null","null","[2,1]"
"","canvas-keyboard-response","83","220057","0.0-6.0-5.12","37","","","","","clear_screen","null","null","","","critical","c","t","d","164","240","240","164","237.1485","162.6685","spektor","0.02","w","240","164","164","240","237.1485","162.6685","39360","39360","38576.5967","tc","null","null","null","null","null","null","[2,1]"
"","canvas-keyboard-response","84","220260","0.0-6.0-0.13","37","","","","","pre trial waiting period","null","null","","","critical","c","t","d","164","240","240","164","220.0396","154.6796","trueblood","0.14","w","240","164","164","240","220.0396","154.6796","39360","39360","34035.6388","dc","null","null","null","null","null","null","[3,1]"
"","canvas-keyboard-response","85","220418","0.0-6.0-1.13","37","","","","","clear_screen","null","null","","","critical","c","t","d","164","240","240","164","220.0396","154.6796","trueblood","0.14","w","240","164","164","240","220.0396","154.6796","39360","39360","34035.6388","dc","null","null","null","null","null","null","[3,1]"
"","canvas-keyboard-response","86","221756","0.0-6.0-2.13","37","","","","","rectangles","null","null","","","critical","c","t","d","164","240","240","164","220.0396","154.6796","trueblood","0.14","w","240","164","164","240","220.0396","154.6796","39360","39360","34035.6388","dc","null","null","null","null","null","null","[3,1]"
"","canvas-keyboard-response","87","221914","0.0-6.0-3.13","37","","","","","clear_screen","null","null","","","critical","c","t","d","164","240","240","164","220.0396","154.6796","trueblood","0.14","w","240","164","164","240","220.0396","154.6796","39360","39360","34035.6388","dc","null","null","null","null","null","null","[3,1]"
"","canvas-keyboard-response","88","223650","0.0-6.0-4.13","37","","","","","make choice","1723","1","","","critical","c","t","d","164","240","240","164","220.0396","154.6796","trueblood","0.14","w","240","164","164","240","220.0396","154.6796","39360","39360","34035.6388","dc","null","null","null","null","null","null","[3,1]"
"","canvas-keyboard-response","89","223809","0.0-6.0-5.13","37","","","","","clear_screen","null","null","","","critical","c","t","d","164","240","240","164","220.0396","154.6796","trueblood","0.14","w","240","164","164","240","220.0396","154.6796","39360","39360","34035.6388","dc","null","null","null","null","null","null","[3,1]"
"","canvas-keyboard-response","90","224012","0.0-6.0-0.14","37","","","","","pre trial waiting period","null","null","","","catch","l","sh","sw","233","169","228","195","192","213","trueblood","null","null","null","null","null","null","null","null","null","null","null","","180","200","260","200","36000","52000","[1,2]"
"","canvas-keyboard-response","91","224175","0.0-6.0-1.14","37","","","","","clear_screen","null","null","","","catch","l","sh","sw","233","169","228","195","192","213","trueblood","null","null","null","null","null","null","null","null","null","null","null","","180","200","260","200","36000","52000","[1,2]"
"","canvas-keyboard-response","92","225512","0.0-6.0-2.14","37","","","","","rectangles","null","null","","","catch","l","sh","sw","233","169","228","195","192","213","trueblood","null","null","null","null","null","null","null","null","null","null","null","","180","200","260","200","36000","52000","[1,2]"
"","canvas-keyboard-response","93","225676","0.0-6.0-3.14","37","","","","","clear_screen","null","null","","","catch","l","sh","sw","233","169","228","195","192","213","trueblood","null","null","null","null","null","null","null","null","null","null","null","","180","200","260","200","36000","52000","[1,2]"
"","canvas-keyboard-response","94","226490","0.0-6.0-4.14","37","","","","","make choice","801","2","","","catch","l","sh","sw","233","169","228","195","192","213","trueblood","null","null","null","null","null","null","null","null","null","null","null","","180","200","260","200","36000","52000","[1,2]"
"","canvas-keyboard-response","95","226651","0.0-6.0-5.14","37","","","","","clear_screen","null","null","","","catch","l","sh","sw","233","169","228","195","192","213","trueblood","null","null","null","null","null","null","null","null","null","null","null","","180","200","260","200","36000","52000","[1,2]"
"","canvas-keyboard-response","96","226853","0.0-6.0-0.15","37","","","","","pre trial waiting period","null","null","","","critical","d","c","t","164","240","240","164","164","240","spektor","0","h","164","240","240","164","164","240","39360","39360","39360","dc","null","null","null","null","null","null","[1,2]"
"","canvas-keyboard-response","97","227017","0.0-6.0-1.15","37","","","","","clear_screen","null","null","","","critical","d","c","t","164","240","240","164","164","240","spektor","0","h","164","240","240","164","164","240","39360","39360","39360","dc","null","null","null","null","null","null","[1,2]"
"","canvas-keyboard-response","98","228352","0.0-6.0-2.15","37","","","","","rectangles","null","null","","","critical","d","c","t","164","240","240","164","164","240","spektor","0","h","164","240","240","164","164","240","39360","39360","39360","dc","null","null","null","null","null","null","[1,2]"
"","canvas-keyboard-response","99","228515","0.0-6.0-3.15","37","","","","","clear_screen","null","null","","","critical","d","c","t","164","240","240","164","164","240","spektor","0","h","164","240","240","164","164","240","39360","39360","39360","dc","null","null","null","null","null","null","[1,2]"
"","canvas-keyboard-response","100","229257","0.0-6.0-4.15","37","","","","","make choice","732","1","","","critical","d","c","t","164","240","240","164","164","240","spektor","0","h","164","240","240","164","164","240","39360","39360","39360","dc","null","null","null","null","null","null","[1,2]"
"","canvas-keyboard-response","101","229415","0.0-6.0-5.15","37","","","","","clear_screen","null","null","","","critical","d","c","t","164","240","240","164","164","240","spektor","0","h","164","240","240","164","164","240","39360","39360","39360","dc","null","null","null","null","null","null","[1,2]"
"","canvas-keyboard-response","102","229616","0.0-6.0-0.16","37","","","","","pre trial waiting period","null","null","","","catch","sw","l","sh","180","200","188","227","180","177","spektor","null","null","null","null","null","null","null","null","null","null","null","","180","200","260","200","36000","52000","[2,3]"
"","canvas-keyboard-response","103","229779","0.0-6.0-1.16","37","","","","","clear_screen","null","null","","","catch","sw","l","sh","180","200","188","227","180","177","spektor","null","null","null","null","null","null","null","null","null","null","null","","180","200","260","200","36000","52000","[2,3]"
"","canvas-keyboard-response","104","231113","0.0-6.0-2.16","37","","","","","rectangles","null","null","","","catch","sw","l","sh","180","200","188","227","180","177","spektor","null","null","null","null","null","null","null","null","null","null","null","","180","200","260","200","36000","52000","[2,3]"
"","canvas-keyboard-response","105","231275","0.0-6.0-3.16","37","","","","","clear_screen","null","null","","","catch","sw","l","sh","180","200","188","227","180","177","spektor","null","null","null","null","null","null","null","null","null","null","null","","180","200","260","200","36000","52000","[2,3]"
"","canvas-keyboard-response","106","232553","0.0-6.0-4.16","37","","","","","make choice","1269","2","","","catch","sw","l","sh","180","200","188","227","180","177","spektor","null","null","null","null","null","null","null","null","null","null","null","","180","200","260","200","36000","52000","[2,3]"
"","canvas-keyboard-response","107","232711","0.0-6.0-5.16","37","","","","","clear_screen","null","null","","","catch","sw","l","sh","180","200","188","227","180","177","spektor","null","null","null","null","null","null","null","null","null","null","null","","180","200","260","200","36000","52000","[2,3]"
"","canvas-keyboard-response","108","232912","0.0-6.0-0.17","37","","","","","pre trial waiting period","null","null","","","catch","sh","l","sw","204","174","299","228","164","172","trueblood","null","null","null","null","null","null","null","null","null","null","null","","180","200","260","200","36000","52000","[2,3]"
"","canvas-keyboard-response","109","233073","0.0-6.0-1.17","37","","","","","clear_screen","null","null","","","catch","sh","l","sw","204","174","299","228","164","172","trueblood","null","null","null","null","null","null","null","null","null","null","null","","180","200","260","200","36000","52000","[2,3]"
"","canvas-keyboard-response","110","234411","0.0-6.0-2.17","37","","","","","rectangles","null","null","","","catch","sh","l","sw","204","174","299","228","164","172","trueblood","null","null","null","null","null","null","null","null","null","null","null","","180","200","260","200","36000","52000","[2,3]"
"","canvas-keyboard-response","111","234573","0.0-6.0-3.17","37","","","","","clear_screen","null","null","","","catch","sh","l","sw","204","174","299","228","164","172","trueblood","null","null","null","null","null","null","null","null","null","null","null","","180","200","260","200","36000","52000","[2,3]"
"","canvas-keyboard-response","112","236049","0.0-6.0-4.17","37","","","","","make choice","1463","2","","","catch","sh","l","sw","204","174","299","228","164","172","trueblood","null","null","null","null","null","null","null","null","null","null","null","","180","200","260","200","36000","52000","[2,3]"
"","canvas-keyboard-response","113","236208","0.0-6.0-5.17","37","","","","","clear_screen","null","null","","","catch","sh","l","sw","204","174","299","228","164","172","trueblood","null","null","null","null","null","null","null","null","null","null","null","","180","200","260","200","36000","52000","[2,3]"
"","canvas-keyboard-response","114","236410","0.0-6.0-0.18","37","","","","","pre trial waiting period","null","null","","","critical","c","d","t","240","164","162.6685","237.1485","164","240","trueblood","0.02","h","164","240","240","164","162.6685","237.1485","39360","39360","38576.5967","dc","null","null","null","null","null","null","[2,1]"
"","canvas-keyboard-response","115","236570","0.0-6.0-1.18","37","","","","","clear_screen","null","null","","","critical","c","d","t","240","164","162.6685","237.1485","164","240","trueblood","0.02","h","164","240","240","164","162.6685","237.1485","39360","39360","38576.5967","dc","null","null","null","null","null","null","[2,1]"
"","canvas-keyboard-response","116","237907","0.0-6.0-2.18","37","","","","","rectangles","null","null","","","critical","c","d","t","240","164","162.6685","237.1485","164","240","trueblood","0.02","h","164","240","240","164","162.6685","237.1485","39360","39360","38576.5967","dc","null","null","null","null","null","null","[2,1]"
"","canvas-keyboard-response","117","238066","0.0-6.0-3.18","37","","","","","clear_screen","null","null","","","critical","c","d","t","240","164","162.6685","237.1485","164","240","trueblood","0.02","h","164","240","240","164","162.6685","237.1485","39360","39360","38576.5967","dc","null","null","null","null","null","null","[2,1]"
"","canvas-keyboard-response","118","239561","0.0-6.0-4.18","37","","","","","make choice","1486","1","","","critical","c","d","t","240","164","162.6685","237.1485","164","240","trueblood","0.02","h","164","240","240","164","162.6685","237.1485","39360","39360","38576.5967","dc","null","null","null","null","null","null","[2,1]"
"","canvas-keyboard-response","119","239723","0.0-6.0-5.18","37","","","","","clear_screen","null","null","","","critical","c","d","t","240","164","162.6685","237.1485","164","240","trueblood","0.02","h","164","240","240","164","162.6685","237.1485","39360","39360","38576.5967","dc","null","null","null","null","null","null","[2,1]"
"","canvas-keyboard-response","120","239924","0.0-6.0-0.19","37","","","","","pre trial waiting period","null","null","","","critical","d","c","t","162.6685","237.1485","240","164","164","240","spektor","0.02","h","164","240","240","164","162.6685","237.1485","39360","39360","38576.5967","tc","null","null","null","null","null","null","[3,2]"
"","canvas-keyboard-response","121","240084","0.0-6.0-1.19","37","","","","","clear_screen","null","null","","","critical","d","c","t","162.6685","237.1485","240","164","164","240","spektor","0.02","h","164","240","240","164","162.6685","237.1485","39360","39360","38576.5967","tc","null","null","null","null","null","null","[3,2]"
"","canvas-keyboard-response","122","241419","0.0-6.0-2.19","37","","","","","rectangles","null","null","","","critical","d","c","t","162.6685","237.1485","240","164","164","240","spektor","0.02","h","164","240","240","164","162.6685","237.1485","39360","39360","38576.5967","tc","null","null","null","null","null","null","[3,2]"
"","canvas-keyboard-response","123","241581","0.0-6.0-3.19","37","","","","","clear_screen","null","null","","","critical","d","c","t","162.6685","237.1485","240","164","164","240","spektor","0.02","h","164","240","240","164","162.6685","237.1485","39360","39360","38576.5967","tc","null","null","null","null","null","null","[3,2]"
"","canvas-keyboard-response","124","242825","0.0-6.0-4.19","37","","","","","make choice","1236","3","","","critical","d","c","t","162.6685","237.1485","240","164","164","240","spektor","0.02","h","164","240","240","164","162.6685","237.1485","39360","39360","38576.5967","tc","null","null","null","null","null","null","[3,2]"
"","canvas-keyboard-response","125","242986","0.0-6.0-5.19","37","","","","","clear_screen","null","null","","","critical","d","c","t","162.6685","237.1485","240","164","164","240","spektor","0.02","h","164","240","240","164","162.6685","237.1485","39360","39360","38576.5967","tc","null","null","null","null","null","null","[3,2]"
"","canvas-keyboard-response","126","243187","0.0-6.0-0.20","37","","","","","pre trial waiting period","null","null","","","critical","c","t","d","164","240","240","164","237.1485","162.6685","trueblood","0.02","w","240","164","164","240","237.1485","162.6685","39360","39360","38576.5967","dc","null","null","null","null","null","null","[3,1]"
"","canvas-keyboard-response","127","243347","0.0-6.0-1.20","37","","","","","clear_screen","null","null","","","critical","c","t","d","164","240","240","164","237.1485","162.6685","trueblood","0.02","w","240","164","164","240","237.1485","162.6685","39360","39360","38576.5967","dc","null","null","null","null","null","null","[3,1]"
"","canvas-keyboard-response","128","244682","0.0-6.0-2.20","37","","","","","rectangles","null","null","","","critical","c","t","d","164","240","240","164","237.1485","162.6685","trueblood","0.02","w","240","164","164","240","237.1485","162.6685","39360","39360","38576.5967","dc","null","null","null","null","null","null","[3,1]"
"","canvas-keyboard-response","129","244841","0.0-6.0-3.20","37","","","","","clear_screen","null","null","","","critical","c","t","d","164","240","240","164","237.1485","162.6685","trueblood","0.02","w","240","164","164","240","237.1485","162.6685","39360","39360","38576.5967","dc","null","null","null","null","null","null","[3,1]"
"","canvas-keyboard-response","130","246497","0.0-6.0-4.20","37","","","","","make choice","1651","3","","","critical","c","t","d","164","240","240","164","237.1485","162.6685","trueblood","0.02","w","240","164","164","240","237.1485","162.6685","39360","39360","38576.5967","dc","null","null","null","null","null","null","[3,1]"
"","canvas-keyboard-response","131","246660","0.0-6.0-5.20","37","","","","","clear_screen","null","null","","","critical","c","t","d","164","240","240","164","237.1485","162.6685","trueblood","0.02","w","240","164","164","240","237.1485","162.6685","39360","39360","38576.5967","dc","null","null","null","null","null","null","[3,1]"
"","canvas-keyboard-response","132","246861","0.0-6.0-0.21","37","","","","","pre trial waiting period","null","null","","","critical","d","c","t","237.1485","162.6685","164","240","240","164","spektor","0.02","w","240","164","164","240","237.1485","162.6685","39360","39360","38576.5967","td","null","null","null","null","null","null","[3,1]"
"","canvas-keyboard-response","133","247021","0.0-6.0-1.21","37","","","","","clear_screen","null","null","","","critical","d","c","t","237.1485","162.6685","164","240","240","164","spektor","0.02","w","240","164","164","240","237.1485","162.6685","39360","39360","38576.5967","td","null","null","null","null","null","null","[3,1]"
"","canvas-keyboard-response","134","248359","0.0-6.0-2.21","37","","","","","rectangles","null","null","","","critical","d","c","t","237.1485","162.6685","164","240","240","164","spektor","0.02","w","240","164","164","240","237.1485","162.6685","39360","39360","38576.5967","td","null","null","null","null","null","null","[3,1]"
"","canvas-keyboard-response","135","248522","0.0-6.0-3.21","37","","","","","clear_screen","null","null","","","critical","d","c","t","237.1485","162.6685","164","240","240","164","spektor","0.02","w","240","164","164","240","237.1485","162.6685","39360","39360","38576.5967","td","null","null","null","null","null","null","[3,1]"
"","canvas-keyboard-response","136","249585","0.0-6.0-4.21","37","","","","","make choice","1054","1","","","critical","d","c","t","237.1485","162.6685","164","240","240","164","spektor","0.02","w","240","164","164","240","237.1485","162.6685","39360","39360","38576.5967","td","null","null","null","null","null","null","[3,1]"
"","canvas-keyboard-response","137","249745","0.0-6.0-5.21","37","","","","","clear_screen","null","null","","","critical","d","c","t","237.1485","162.6685","164","240","240","164","spektor","0.02","w","240","164","164","240","237.1485","162.6685","39360","39360","38576.5967","td","null","null","null","null","null","null","[3,1]"
"","canvas-keyboard-response","138","249947","0.0-6.0-0.22","37","","","","","pre trial waiting period","null","null","","","critical","d","c","t","154.6796","220.0396","240","164","164","240","trueblood","0.14","h","164","240","240","164","154.6796","220.0396","39360","39360","34035.6388","td","null","null","null","null","null","null","[3,1]"
"","canvas-keyboard-response","139","250106","0.0-6.0-1.22","37","","","","","clear_screen","null","null","","","critical","d","c","t","154.6796","220.0396","240","164","164","240","trueblood","0.14","h","164","240","240","164","154.6796","220.0396","39360","39360","34035.6388","td","null","null","null","null","null","null","[3,1]"
"","canvas-keyboard-response","140","251439","0.0-6.0-2.22","37","","","","","rectangles","null","null","","","critical","d","c","t","154.6796","220.0396","240","164","164","240","trueblood","0.14","h","164","240","240","164","154.6796","220.0396","39360","39360","34035.6388","td","null","null","null","null","null","null","[3,1]"
"","canvas-keyboard-response","141","251599","0.0-6.0-3.22","37","","","","","clear_screen","null","null","","","critical","d","c","t","154.6796","220.0396","240","164","164","240","trueblood","0.14","h","164","240","240","164","154.6796","220.0396","39360","39360","34035.6388","td","null","null","null","null","null","null","[3,1]"
"","canvas-keyboard-response","142","253012","0.0-6.0-4.22","37","","","","","make choice","1400","1","","","critical","d","c","t","154.6796","220.0396","240","164","164","240","trueblood","0.14","h","164","240","240","164","154.6796","220.0396","39360","39360","34035.6388","td","null","null","null","null","null","null","[3,1]"
"","canvas-keyboard-response","143","253173","0.0-6.0-5.22","37","","","","","clear_screen","null","null","","","critical","d","c","t","154.6796","220.0396","240","164","164","240","trueblood","0.14","h","164","240","240","164","154.6796","220.0396","39360","39360","34035.6388","td","null","null","null","null","null","null","[3,1]"
"","canvas-keyboard-response","144","253377","0.0-6.0-0.23","37","","","","","pre trial waiting period","null","null","","","critical","c","t","d","240","164","164","240","158.0083","227.1683","trueblood","0.09","h","164","240","240","164","158.0083","227.1683","39360","39360","35894.4834","dc","null","null","null","null","null","null","[3,1]"
"","canvas-keyboard-response","145","253538","0.0-6.0-1.23","37","","","","","clear_screen","null","null","","","critical","c","t","d","240","164","164","240","158.0083","227.1683","trueblood","0.09","h","164","240","240","164","158.0083","227.1683","39360","39360","35894.4834","dc","null","null","null","null","null","null","[3,1]"
"","canvas-keyboard-response","146","254876","0.0-6.0-2.23","37","","","","","rectangles","null","null","","","critical","c","t","d","240","164","164","240","158.0083","227.1683","trueblood","0.09","h","164","240","240","164","158.0083","227.1683","39360","39360","35894.4834","dc","null","null","null","null","null","null","[3,1]"
"","canvas-keyboard-response","147","255033","0.0-6.0-3.23","37","","","","","clear_screen","null","null","","","critical","c","t","d","240","164","164","240","158.0083","227.1683","trueblood","0.09","h","164","240","240","164","158.0083","227.1683","39360","39360","35894.4834","dc","null","null","null","null","null","null","[3,1]"
"","canvas-keyboard-response","148","256026","0.0-6.0-4.23","37","","","","","make choice","983","1","","","critical","c","t","d","240","164","164","240","158.0083","227.1683","trueblood","0.09","h","164","240","240","164","158.0083","227.1683","39360","39360","35894.4834","dc","null","null","null","null","null","null","[3,1]"
"","canvas-keyboard-response","149","256187","0.0-6.0-5.23","37","","","","","clear_screen","null","null","","","critical","c","t","d","240","164","164","240","158.0083","227.1683","trueblood","0.09","h","164","240","240","164","158.0083","227.1683","39360","39360","35894.4834","dc","null","null","null","null","null","null","[3,1]"
"","canvas-keyboard-response","150","256390","0.0-6.0-0.24","37","","","","","pre trial waiting period","null","null","","","catch","sw","l","sh","180","200","181","299","195","219","spektor","null","null","null","null","null","null","null","null","null","null","null","","180","200","260","200","36000","52000","[1,2]"
"","canvas-keyboard-response","151","256553","0.0-6.0-1.24","37","","","","","clear_screen","null","null","","","catch","sw","l","sh","180","200","181","299","195","219","spektor","null","null","null","null","null","null","null","null","null","null","null","","180","200","260","200","36000","52000","[1,2]"
"","canvas-keyboard-response","152","257888","0.0-6.0-2.24","37","","","","","rectangles","null","null","","","catch","sw","l","sh","180","200","181","299","195","219","spektor","null","null","null","null","null","null","null","null","null","null","null","","180","200","260","200","36000","52000","[1,2]"
"","canvas-keyboard-response","153","258049","0.0-6.0-3.24","37","","","","","clear_screen","null","null","","","catch","sw","l","sh","180","200","181","299","195","219","spektor","null","null","null","null","null","null","null","null","null","null","null","","180","200","260","200","36000","52000","[1,2]"
"","canvas-keyboard-response","154","259105","0.0-6.0-4.24","37","","","","","make choice","1046","2","","","catch","sw","l","sh","180","200","181","299","195","219","spektor","null","null","null","null","null","null","null","null","null","null","null","","180","200","260","200","36000","52000","[1,2]"
"","canvas-keyboard-response","155","259264","0.0-6.0-5.24","37","","","","","clear_screen","null","null","","","catch","sw","l","sh","180","200","181","299","195","219","spektor","null","null","null","null","null","null","null","null","null","null","null","","180","200","260","200","36000","52000","[1,2]"
"","canvas-keyboard-response","156","259466","0.0-6.0-0.25","37","","","","","pre trial waiting period","null","null","","","critical","c","d","t","164","240","232.8713","160.6713","240","164","spektor","0.05","w","240","164","164","240","232.8713","160.6713","39360","39360","37415.7294","td","null","null","null","null","null","null","[3,2]"
"","canvas-keyboard-response","157","259628","0.0-6.0-1.25","37","","","","","clear_screen","null","null","","","critical","c","d","t","164","240","232.8713","160.6713","240","164","spektor","0.05","w","240","164","164","240","232.8713","160.6713","39360","39360","37415.7294","td","null","null","null","null","null","null","[3,2]"
"","canvas-keyboard-response","158","260968","0.0-6.0-2.25","37","","","","","rectangles","null","null","","","critical","c","d","t","164","240","232.8713","160.6713","240","164","spektor","0.05","w","240","164","164","240","232.8713","160.6713","39360","39360","37415.7294","td","null","null","null","null","null","null","[3,2]"
"","canvas-keyboard-response","159","261126","0.0-6.0-3.25","37","","","","","clear_screen","null","null","","","critical","c","d","t","164","240","232.8713","160.6713","240","164","spektor","0.05","w","240","164","164","240","232.8713","160.6713","39360","39360","37415.7294","td","null","null","null","null","null","null","[3,2]"
"","canvas-keyboard-response","160","262594","0.0-6.0-4.25","37","","","","","make choice","1459","3","","","critical","c","d","t","164","240","232.8713","160.6713","240","164","spektor","0.05","w","240","164","164","240","232.8713","160.6713","39360","39360","37415.7294","td","null","null","null","null","null","null","[3,2]"
"","canvas-keyboard-response","161","262752","0.0-6.0-5.25","37","","","","","clear_screen","null","null","","","critical","c","d","t","164","240","232.8713","160.6713","240","164","spektor","0.05","w","240","164","164","240","232.8713","160.6713","39360","39360","37415.7294","td","null","null","null","null","null","null","[3,2]"
"","canvas-keyboard-response","162","262954","0.0-6.0-0.26","37","","","","","pre trial waiting period","null","null","","","critical","t","d","c","240","164","232.8713","160.6713","164","240","trueblood","0.05","w","240","164","164","240","232.8713","160.6713","39360","39360","37415.7294","tc","null","null","null","null","null","null","[1,3]"
"","canvas-keyboard-response","163","263119","0.0-6.0-1.26","37","","","","","clear_screen","null","null","","","critical","t","d","c","240","164","232.8713","160.6713","164","240","trueblood","0.05","w","240","164","164","240","232.8713","160.6713","39360","39360","37415.7294","tc","null","null","null","null","null","null","[1,3]"
"","canvas-keyboard-response","164","264453","0.0-6.0-2.26","37","","","","","rectangles","null","null","","","critical","t","d","c","240","164","232.8713","160.6713","164","240","trueblood","0.05","w","240","164","164","240","232.8713","160.6713","39360","39360","37415.7294","tc","null","null","null","null","null","null","[1,3]"
"","canvas-keyboard-response","165","264616","0.0-6.0-3.26","37","","","","","clear_screen","null","null","","","critical","t","d","c","240","164","232.8713","160.6713","164","240","trueblood","0.05","w","240","164","164","240","232.8713","160.6713","39360","39360","37415.7294","tc","null","null","null","null","null","null","[1,3]"
"","canvas-keyboard-response","166","265578","0.0-6.0-4.26","37","","","","","make choice","953","1","","","critical","t","d","c","240","164","232.8713","160.6713","164","240","trueblood","0.05","w","240","164","164","240","232.8713","160.6713","39360","39360","37415.7294","tc","null","null","null","null","null","null","[1,3]"
"","canvas-keyboard-response","167","265735","0.0-6.0-5.26","37","","","","","clear_screen","null","null","","","critical","t","d","c","240","164","232.8713","160.6713","164","240","trueblood","0.05","w","240","164","164","240","232.8713","160.6713","39360","39360","37415.7294","tc","null","null","null","null","null","null","[1,3]"
"","canvas-keyboard-response","168","265937","0.0-6.0-0.27","37","","","","","pre trial waiting period","null","null","","","catch","sw","sh","l","180","200","207","160","237","201","spektor","null","null","null","null","null","null","null","null","null","null","null","","180","200","260","200","36000","52000","[2,3]"
"","canvas-keyboard-response","169","266098","0.0-6.0-1.27","37","","","","","clear_screen","null","null","","","catch","sw","sh","l","180","200","207","160","237","201","spektor","null","null","null","null","null","null","null","null","null","null","null","","180","200","260","200","36000","52000","[2,3]"
"","canvas-keyboard-response","170","267436","0.0-6.0-2.27","37","","","","","rectangles","null","null","","","catch","sw","sh","l","180","200","207","160","237","201","spektor","null","null","null","null","null","null","null","null","null","null","null","","180","200","260","200","36000","52000","[2,3]"
"","canvas-keyboard-response","171","267594","0.0-6.0-3.27","37","","","","","clear_screen","null","null","","","catch","sw","sh","l","180","200","207","160","237","201","spektor","null","null","null","null","null","null","null","null","null","null","null","","180","200","260","200","36000","52000","[2,3]"
"","canvas-keyboard-response","172","268425","0.0-6.0-4.27","37","","","","","make choice","819","3","","","catch","sw","sh","l","180","200","207","160","237","201","spektor","null","null","null","null","null","null","null","null","null","null","null","","180","200","260","200","36000","52000","[2,3]"
"","canvas-keyboard-response","173","268584","0.0-6.0-5.27","37","","","","","clear_screen","null","null","","","catch","sw","sh","l","180","200","207","160","237","201","spektor","null","null","null","null","null","null","null","null","null","null","null","","180","200","260","200","36000","52000","[2,3]"
"","canvas-keyboard-response","174","268786","0.0-6.0-0.28","37","","","","","pre trial waiting period","null","null","","","critical","c","t","d","240","164","164","240","158.0083","227.1683","trueblood","0.09","h","164","240","240","164","158.0083","227.1683","39360","39360","35894.4834","td","null","null","null","null","null","null","[2,3]"
"","canvas-keyboard-response","175","268944","0.0-6.0-1.28","37","","","","","clear_screen","null","null","","","critical","c","t","d","240","164","164","240","158.0083","227.1683","trueblood","0.09","h","164","240","240","164","158.0083","227.1683","39360","39360","35894.4834","td","null","null","null","null","null","null","[2,3]"
"","canvas-keyboard-response","176","270283","0.0-6.0-2.28","37","","","","","rectangles","null","null","","","critical","c","t","d","240","164","164","240","158.0083","227.1683","trueblood","0.09","h","164","240","240","164","158.0083","227.1683","39360","39360","35894.4834","td","null","null","null","null","null","null","[2,3]"
"","canvas-keyboard-response","177","270442","0.0-6.0-3.28","37","","","","","clear_screen","null","null","","","critical","c","t","d","240","164","164","240","158.0083","227.1683","trueblood","0.09","h","164","240","240","164","158.0083","227.1683","39360","39360","35894.4834","td","null","null","null","null","null","null","[2,3]"
"","canvas-keyboard-response","178","271817","0.0-6.0-4.28","37","","","","","make choice","1366","2","","","critical","c","t","d","240","164","164","240","158.0083","227.1683","trueblood","0.09","h","164","240","240","164","158.0083","227.1683","39360","39360","35894.4834","td","null","null","null","null","null","null","[2,3]"
"","canvas-keyboard-response","179","271974","0.0-6.0-5.28","37","","","","","clear_screen","null","null","","","critical","c","t","d","240","164","164","240","158.0083","227.1683","trueblood","0.09","h","164","240","240","164","158.0083","227.1683","39360","39360","35894.4834","td","null","null","null","null","null","null","[2,3]"
"","canvas-keyboard-response","180","272178","0.0-6.0-0.29","37","","","","","pre trial waiting period","null","null","","","critical","t","d","c","164","240","158.0083","227.1683","240","164","spektor","0.09","h","164","240","240","164","158.0083","227.1683","39360","39360","35894.4834","dc","null","null","null","null","null","null","[2,3]"
"","canvas-keyboard-response","181","272340","0.0-6.0-1.29","37","","","","","clear_screen","null","null","","","critical","t","d","c","164","240","158.0083","227.1683","240","164","spektor","0.09","h","164","240","240","164","158.0083","227.1683","39360","39360","35894.4834","dc","null","null","null","null","null","null","[2,3]"
"","canvas-keyboard-response","182","273676","0.0-6.0-2.29","37","","","","","rectangles","null","null","","","critical","t","d","c","164","240","158.0083","227.1683","240","164","spektor","0.09","h","164","240","240","164","158.0083","227.1683","39360","39360","35894.4834","dc","null","null","null","null","null","null","[2,3]"
"","canvas-keyboard-response","183","273838","0.0-6.0-3.29","37","","","","","clear_screen","null","null","","","critical","t","d","c","164","240","158.0083","227.1683","240","164","spektor","0.09","h","164","240","240","164","158.0083","227.1683","39360","39360","35894.4834","dc","null","null","null","null","null","null","[2,3]"
"","canvas-keyboard-response","184","275280","0.0-6.0-4.29","37","","","","","make choice","1433","2","","","critical","t","d","c","164","240","158.0083","227.1683","240","164","spektor","0.09","h","164","240","240","164","158.0083","227.1683","39360","39360","35894.4834","dc","null","null","null","null","null","null","[2,3]"
"","canvas-keyboard-response","185","275439","0.0-6.0-5.29","37","","","","","clear_screen","null","null","","","critical","t","d","c","164","240","158.0083","227.1683","240","164","spektor","0.09","h","164","240","240","164","158.0083","227.1683","39360","39360","35894.4834","dc","null","null","null","null","null","null","[2,3]"
"","canvas-keyboard-response","186","275640","0.0-6.0-0.30","37","","","","","pre trial waiting period","null","null","","","critical","c","d","t","164","240","227.1683","158.0083","240","164","spektor","0.09","w","240","164","164","240","227.1683","158.0083","39360","39360","35894.4834","dc","null","null","null","null","null","null","[2,1]"
"","canvas-keyboard-response","187","275802","0.0-6.0-1.30","37","","","","","clear_screen","null","null","","","critical","c","d","t","164","240","227.1683","158.0083","240","164","spektor","0.09","w","240","164","164","240","227.1683","158.0083","39360","39360","35894.4834","dc","null","null","null","null","null","null","[2,1]"
"","canvas-keyboard-response","188","277136","0.0-6.0-2.30","37","","","","","rectangles","null","null","","","critical","c","d","t","164","240","227.1683","158.0083","240","164","spektor","0.09","w","240","164","164","240","227.1683","158.0083","39360","39360","35894.4834","dc","null","null","null","null","null","null","[2,1]"
"","canvas-keyboard-response","189","277298","0.0-6.0-3.30","37","","","","","clear_screen","null","null","","","critical","c","d","t","164","240","227.1683","158.0083","240","164","spektor","0.09","w","240","164","164","240","227.1683","158.0083","39360","39360","35894.4834","dc","null","null","null","null","null","null","[2,1]"
"","canvas-keyboard-response","190","278033","0.0-6.0-4.30","37","","","","","make choice","728","1","","","critical","c","d","t","164","240","227.1683","158.0083","240","164","spektor","0.09","w","240","164","164","240","227.1683","158.0083","39360","39360","35894.4834","dc","null","null","null","null","null","null","[2,1]"
"","canvas-keyboard-response","191","278191","0.0-6.0-5.30","37","","","","","clear_screen","null","null","","","critical","c","d","t","164","240","227.1683","158.0083","240","164","spektor","0.09","w","240","164","164","240","227.1683","158.0083","39360","39360","35894.4834","dc","null","null","null","null","null","null","[2,1]"
"","canvas-keyboard-response","192","278393","0.0-6.0-0.31","37","","","","","pre trial waiting period","null","null","","","catch","l","sw","sh","290","166","164","204","239","171","spektor","null","null","null","null","null","null","null","null","null","null","null","","180","200","260","200","36000","52000","[1,3]"
"","canvas-keyboard-response","193","278551","0.0-6.0-1.31","37","","","","","clear_screen","null","null","","","catch","l","sw","sh","290","166","164","204","239","171","spektor","null","null","null","null","null","null","null","null","null","null","null","","180","200","260","200","36000","52000","[1,3]"
"","canvas-keyboard-response","194","279885","0.0-6.0-2.31","37","","","","","rectangles","null","null","","","catch","l","sw","sh","290","166","164","204","239","171","spektor","null","null","null","null","null","null","null","null","null","null","null","","180","200","260","200","36000","52000","[1,3]"
"","canvas-keyboard-response","195","280047","0.0-6.0-3.31","37","","","","","clear_screen","null","null","","","catch","l","sw","sh","290","166","164","204","239","171","spektor","null","null","null","null","null","null","null","null","null","null","null","","180","200","260","200","36000","52000","[1,3]"
"","canvas-keyboard-response","196","280786","0.0-6.0-4.31","37","","","","","make choice","728","1","","","catch","l","sw","sh","290","166","164","204","239","171","spektor","null","null","null","null","null","null","null","null","null","null","null","","180","200","260","200","36000","52000","[1,3]"
"","canvas-keyboard-response","197","280943","0.0-6.0-5.31","37","","","","","clear_screen","null","null","","","catch","l","sw","sh","290","166","164","204","239","171","spektor","null","null","null","null","null","null","null","null","null","null","null","","180","200","260","200","36000","52000","[1,3]"
"","canvas-keyboard-response","198","281144","0.0-6.0-0.32","37","","","","","pre trial waiting period","null","null","","","catch","sw","sh","l","180","200","163","168","189","286","trueblood","null","null","null","null","null","null","null","null","null","null","null","","180","200","260","200","36000","52000","[1,3]"
"","canvas-keyboard-response","199","281303","0.0-6.0-1.32","37","","","","","clear_screen","null","null","","","catch","sw","sh","l","180","200","163","168","189","286","trueblood","null","null","null","null","null","null","null","null","null","null","null","","180","200","260","200","36000","52000","[1,3]"
"","canvas-keyboard-response","200","282643","0.0-6.0-2.32","37","","","","","rectangles","null","null","","","catch","sw","sh","l","180","200","163","168","189","286","trueblood","null","null","null","null","null","null","null","null","null","null","null","","180","200","260","200","36000","52000","[1,3]"
"","canvas-keyboard-response","201","282804","0.0-6.0-3.32","37","","","","","clear_screen","null","null","","","catch","sw","sh","l","180","200","163","168","189","286","trueblood","null","null","null","null","null","null","null","null","null","null","null","","180","200","260","200","36000","52000","[1,3]"
"","canvas-keyboard-response","202","284417","0.0-6.0-4.32","37","","","","","make choice","1603","3","","","catch","sw","sh","l","180","200","163","168","189","286","trueblood","null","null","null","null","null","null","null","null","null","null","null","","180","200","260","200","36000","52000","[1,3]"
"","canvas-keyboard-response","203","284575","0.0-6.0-5.32","37","","","","","clear_screen","null","null","","","catch","sw","sh","l","180","200","163","168","189","286","trueblood","null","null","null","null","null","null","null","null","null","null","null","","180","200","260","200","36000","52000","[1,3]"
"","canvas-keyboard-response","204","284776","0.0-6.0-0.33","37","","","","","pre trial waiting period","null","null","","","critical","c","d","t","240","164","158.0083","227.1683","164","240","spektor","0.09","h","164","240","240","164","158.0083","227.1683","39360","39360","35894.4834","tc","null","null","null","null","null","null","[3,1]"
"","canvas-keyboard-response","205","284939","0.0-6.0-1.33","37","","","","","clear_screen","null","null","","","critical","c","d","t","240","164","158.0083","227.1683","164","240","spektor","0.09","h","164","240","240","164","158.0083","227.1683","39360","39360","35894.4834","tc","null","null","null","null","null","null","[3,1]"
"","canvas-keyboard-response","206","286273","0.0-6.0-2.33","37","","","","","rectangles","null","null","","","critical","c","d","t","240","164","158.0083","227.1683","164","240","spektor","0.09","h","164","240","240","164","158.0083","227.1683","39360","39360","35894.4834","tc","null","null","null","null","null","null","[3,1]"
"","canvas-keyboard-response","207","286434","0.0-6.0-3.33","37","","","","","clear_screen","null","null","","","critical","c","d","t","240","164","158.0083","227.1683","164","240","spektor","0.09","h","164","240","240","164","158.0083","227.1683","39360","39360","35894.4834","tc","null","null","null","null","null","null","[3,1]"
"","canvas-keyboard-response","208","287922","0.0-6.0-4.33","37","","","","","make choice","1479","1","","","critical","c","d","t","240","164","158.0083","227.1683","164","240","spektor","0.09","h","164","240","240","164","158.0083","227.1683","39360","39360","35894.4834","tc","null","null","null","null","null","null","[3,1]"
"","canvas-keyboard-response","209","288085","0.0-6.0-5.33","37","","","","","clear_screen","null","null","","","critical","c","d","t","240","164","158.0083","227.1683","164","240","spektor","0.09","h","164","240","240","164","158.0083","227.1683","39360","39360","35894.4834","tc","null","null","null","null","null","null","[3,1]"
"","canvas-keyboard-response","210","288289","0.0-6.0-0.34","37","","","","","pre trial waiting period","null","null","","","catch","sw","sh","l","180","200","220","215","297","173","trueblood","null","null","null","null","null","null","null","null","null","null","null","","180","200","260","200","36000","52000","[1,3]"
"","canvas-keyboard-response","211","288449","0.0-6.0-1.34","37","","","","","clear_screen","null","null","","","catch","sw","sh","l","180","200","220","215","297","173","trueblood","null","null","null","null","null","null","null","null","null","null","null","","180","200","260","200","36000","52000","[1,3]"
"","canvas-keyboard-response","212","289786","0.0-6.0-2.34","37","","","","","rectangles","null","null","","","catch","sw","sh","l","180","200","220","215","297","173","trueblood","null","null","null","null","null","null","null","null","null","null","null","","180","200","260","200","36000","52000","[1,3]"
"","canvas-keyboard-response","213","289949","0.0-6.0-3.34","37","","","","","clear_screen","null","null","","","catch","sw","sh","l","180","200","220","215","297","173","trueblood","null","null","null","null","null","null","null","null","null","null","null","","180","200","260","200","36000","52000","[1,3]"
"","canvas-keyboard-response","214","291402","0.0-6.0-4.34","37","","","","","make choice","1441","3","","","catch","sw","sh","l","180","200","220","215","297","173","trueblood","null","null","null","null","null","null","null","null","null","null","null","","180","200","260","200","36000","52000","[1,3]"
"","canvas-keyboard-response","215","291562","0.0-6.0-5.34","37","","","","","clear_screen","null","null","","","catch","sw","sh","l","180","200","220","215","297","173","trueblood","null","null","null","null","null","null","null","null","null","null","null","","180","200","260","200","36000","52000","[1,3]"
"","canvas-keyboard-response","216","291765","0.0-6.0-0.35","37","","","","","pre trial waiting period","null","null","","","critical","d","c","t","154.6796","220.0396","240","164","164","240","trueblood","0.14","h","164","240","240","164","154.6796","220.0396","39360","39360","34035.6388","dc","null","null","null","null","null","null","[1,2]"
"","canvas-keyboard-response","217","291924","0.0-6.0-1.35","37","","","","","clear_screen","null","null","","","critical","d","c","t","154.6796","220.0396","240","164","164","240","trueblood","0.14","h","164","240","240","164","154.6796","220.0396","39360","39360","34035.6388","dc","null","null","null","null","null","null","[1,2]"
"","canvas-keyboard-response","218","293261","0.0-6.0-2.35","37","","","","","rectangles","null","null","","","critical","d","c","t","154.6796","220.0396","240","164","164","240","trueblood","0.14","h","164","240","240","164","154.6796","220.0396","39360","39360","34035.6388","dc","null","null","null","null","null","null","[1,2]"
"","canvas-keyboard-response","219","293423","0.0-6.0-3.35","37","","","","","clear_screen","null","null","","","critical","d","c","t","154.6796","220.0396","240","164","164","240","trueblood","0.14","h","164","240","240","164","154.6796","220.0396","39360","39360","34035.6388","dc","null","null","null","null","null","null","[1,2]"
"","canvas-keyboard-response","220","294921","0.0-6.0-4.35","37","","","","","make choice","1484","2","","","critical","d","c","t","154.6796","220.0396","240","164","164","240","trueblood","0.14","h","164","240","240","164","154.6796","220.0396","39360","39360","34035.6388","dc","null","null","null","null","null","null","[1,2]"
"","canvas-keyboard-response","221","295079","0.0-6.0-5.35","37","","","","","clear_screen","null","null","","","critical","d","c","t","154.6796","220.0396","240","164","164","240","trueblood","0.14","h","164","240","240","164","154.6796","220.0396","39360","39360","34035.6388","dc","null","null","null","null","null","null","[1,2]"
"","canvas-keyboard-response","222","295281","0.0-6.0-0.36","37","","","","","pre trial waiting period","null","null","","","critical","t","c","d","240","164","164","240","232.8713","160.6713","trueblood","0.05","w","240","164","164","240","232.8713","160.6713","39360","39360","37415.7294","td","null","null","null","null","null","null","[1,3]"
"","canvas-keyboard-response","223","295444","0.0-6.0-1.36","37","","","","","clear_screen","null","null","","","critical","t","c","d","240","164","164","240","232.8713","160.6713","trueblood","0.05","w","240","164","164","240","232.8713","160.6713","39360","39360","37415.7294","td","null","null","null","null","null","null","[1,3]"
"","canvas-keyboard-response","224","296780","0.0-6.0-2.36","37","","","","","rectangles","null","null","","","critical","t","c","d","240","164","164","240","232.8713","160.6713","trueblood","0.05","w","240","164","164","240","232.8713","160.6713","39360","39360","37415.7294","td","null","null","null","null","null","null","[1,3]"
"","canvas-keyboard-response","225","296940","0.0-6.0-3.36","37","","","","","clear_screen","null","null","","","critical","t","c","d","240","164","164","240","232.8713","160.6713","trueblood","0.05","w","240","164","164","240","232.8713","160.6713","39360","39360","37415.7294","td","null","null","null","null","null","null","[1,3]"
"","canvas-keyboard-response","226","297889","0.0-6.0-4.36","37","","","","","make choice","941","1","","","critical","t","c","d","240","164","164","240","232.8713","160.6713","trueblood","0.05","w","240","164","164","240","232.8713","160.6713","39360","39360","37415.7294","td","null","null","null","null","null","null","[1,3]"
"","canvas-keyboard-response","227","298048","0.0-6.0-5.36","37","","","","","clear_screen","null","null","","","critical","t","c","d","240","164","164","240","232.8713","160.6713","trueblood","0.05","w","240","164","164","240","232.8713","160.6713","39360","39360","37415.7294","td","null","null","null","null","null","null","[1,3]"
"","canvas-keyboard-response","228","298250","0.0-6.0-0.37","37","","","","","pre trial waiting period","null","null","","","critical","d","c","t","227.1683","158.0083","164","240","240","164","spektor","0.09","w","240","164","164","240","227.1683","158.0083","39360","39360","35894.4834","tc","null","null","null","null","null","null","[3,2]"
"","canvas-keyboard-response","229","298410","0.0-6.0-1.37","37","","","","","clear_screen","null","null","","","critical","d","c","t","227.1683","158.0083","164","240","240","164","spektor","0.09","w","240","164","164","240","227.1683","158.0083","39360","39360","35894.4834","tc","null","null","null","null","null","null","[3,2]"
"","canvas-keyboard-response","230","299751","0.0-6.0-2.37","37","","","","","rectangles","null","null","","","critical","d","c","t","227.1683","158.0083","164","240","240","164","spektor","0.09","w","240","164","164","240","227.1683","158.0083","39360","39360","35894.4834","tc","null","null","null","null","null","null","[3,2]"
"","canvas-keyboard-response","231","299914","0.0-6.0-3.37","37","","","","","clear_screen","null","null","","","critical","d","c","t","227.1683","158.0083","164","240","240","164","spektor","0.09","w","240","164","164","240","227.1683","158.0083","39360","39360","35894.4834","tc","null","null","null","null","null","null","[3,2]"
"","canvas-keyboard-response","232","300977","0.0-6.0-4.37","37","","","","","make choice","1056","2","","","critical","d","c","t","227.1683","158.0083","164","240","240","164","spektor","0.09","w","240","164","164","240","227.1683","158.0083","39360","39360","35894.4834","tc","null","null","null","null","null","null","[3,2]"
"","canvas-keyboard-response","233","301135","0.0-6.0-5.37","37","","","","","clear_screen","null","null","","","critical","d","c","t","227.1683","158.0083","164","240","240","164","spektor","0.09","w","240","164","164","240","227.1683","158.0083","39360","39360","35894.4834","tc","null","null","null","null","null","null","[3,2]"
"","canvas-keyboard-response","234","301336","0.0-6.0-0.38","37","","","","","pre trial waiting period","null","null","","","critical","t","d","c","164","240","158.0083","227.1683","240","164","spektor","0.09","h","164","240","240","164","158.0083","227.1683","39360","39360","35894.4834","td","null","null","null","null","null","null","[1,2]"
"","canvas-keyboard-response","235","301498","0.0-6.0-1.38","37","","","","","clear_screen","null","null","","","critical","t","d","c","164","240","158.0083","227.1683","240","164","spektor","0.09","h","164","240","240","164","158.0083","227.1683","39360","39360","35894.4834","td","null","null","null","null","null","null","[1,2]"
"","canvas-keyboard-response","236","302835","0.0-6.0-2.38","37","","","","","rectangles","null","null","","","critical","t","d","c","164","240","158.0083","227.1683","240","164","spektor","0.09","h","164","240","240","164","158.0083","227.1683","39360","39360","35894.4834","td","null","null","null","null","null","null","[1,2]"
"","canvas-keyboard-response","237","302998","0.0-6.0-3.38","37","","","","","clear_screen","null","null","","","critical","t","d","c","164","240","158.0083","227.1683","240","164","spektor","0.09","h","164","240","240","164","158.0083","227.1683","39360","39360","35894.4834","td","null","null","null","null","null","null","[1,2]"
"","canvas-keyboard-response","238","304017","0.0-6.0-4.38","37","","","","","make choice","1011","2","","","critical","t","d","c","164","240","158.0083","227.1683","240","164","spektor","0.09","h","164","240","240","164","158.0083","227.1683","39360","39360","35894.4834","td","null","null","null","null","null","null","[1,2]"
"","canvas-keyboard-response","239","304175","0.0-6.0-5.38","37","","","","","clear_screen","null","null","","","critical","t","d","c","164","240","158.0083","227.1683","240","164","spektor","0.09","h","164","240","240","164","158.0083","227.1683","39360","39360","35894.4834","td","null","null","null","null","null","null","[1,2]"
"","canvas-keyboard-response","240","304375","0.0-6.0-0.39","37","","","","","pre trial waiting period","null","null","","","catch","l","sw","sh","281","212","194","230","228","197","trueblood","null","null","null","null","null","null","null","null","null","null","null","","180","200","260","200","36000","52000","[1,2]"
"","canvas-keyboard-response","241","304539","0.0-6.0-1.39","37","","","","","clear_screen","null","null","","","catch","l","sw","sh","281","212","194","230","228","197","trueblood","null","null","null","null","null","null","null","null","null","null","null","","180","200","260","200","36000","52000","[1,2]"
"","canvas-keyboard-response","242","305878","0.0-6.0-2.39","37","","","","","rectangles","null","null","","","catch","l","sw","sh","281","212","194","230","228","197","trueblood","null","null","null","null","null","null","null","null","null","null","null","","180","200","260","200","36000","52000","[1,2]"
"","canvas-keyboard-response","243","306039","0.0-6.0-3.39","37","","","","","clear_screen","null","null","","","catch","l","sw","sh","281","212","194","230","228","197","trueblood","null","null","null","null","null","null","null","null","null","null","null","","180","200","260","200","36000","52000","[1,2]"
"","canvas-keyboard-response","244","307017","0.0-6.0-4.39","37","","","","","make choice","970","1","","","catch","l","sw","sh","281","212","194","230","228","197","trueblood","null","null","null","null","null","null","null","null","null","null","null","","180","200","260","200","36000","52000","[1,2]"
"","canvas-keyboard-response","245","307179","0.0-6.0-5.39","37","","","","","clear_screen","null","null","","","catch","l","sw","sh","281","212","194","230","228","197","trueblood","null","null","null","null","null","null","null","null","null","null","null","","180","200","260","200","36000","52000","[1,2]"
"","canvas-keyboard-response","246","307382","0.0-6.0-0.40","37","","","","","pre trial waiting period","null","null","","","catch","sw","l","sh","180","200","216","293","195","152","trueblood","null","null","null","null","null","null","null","null","null","null","null","","180","200","260","200","36000","52000","[2,3]"
"","canvas-keyboard-response","247","307542","0.0-6.0-1.40","37","","","","","clear_screen","null","null","","","catch","sw","l","sh","180","200","216","293","195","152","trueblood","null","null","null","null","null","null","null","null","null","null","null","","180","200","260","200","36000","52000","[2,3]"
"","canvas-keyboard-response","248","308879","0.0-6.0-2.40","37","","","","","rectangles","null","null","","","catch","sw","l","sh","180","200","216","293","195","152","trueblood","null","null","null","null","null","null","null","null","null","null","null","","180","200","260","200","36000","52000","[2,3]"
"","canvas-keyboard-response","249","309040","0.0-6.0-3.40","37","","","","","clear_screen","null","null","","","catch","sw","l","sh","180","200","216","293","195","152","trueblood","null","null","null","null","null","null","null","null","null","null","null","","180","200","260","200","36000","52000","[2,3]"
"","canvas-keyboard-response","250","310346","0.0-6.0-4.40","37","","","","","make choice","1299","2","","","catch","sw","l","sh","180","200","216","293","195","152","trueblood","null","null","null","null","null","null","null","null","null","null","null","","180","200","260","200","36000","52000","[2,3]"
"","canvas-keyboard-response","251","310503","0.0-6.0-5.40","37","","","","","clear_screen","null","null","","","catch","sw","l","sh","180","200","216","293","195","152","trueblood","null","null","null","null","null","null","null","null","null","null","null","","180","200","260","200","36000","52000","[2,3]"
"","canvas-keyboard-response","252","310704","0.0-6.0-0.41","37","","","","","pre trial waiting period","null","null","","","critical","d","t","c","154.6796","220.0396","164","240","240","164","spektor","0.14","h","164","240","240","164","154.6796","220.0396","39360","39360","34035.6388","dc","null","null","null","null","null","null","[1,3]"
"","canvas-keyboard-response","253","310864","0.0-6.0-1.41","37","","","","","clear_screen","null","null","","","critical","d","t","c","154.6796","220.0396","164","240","240","164","spektor","0.14","h","164","240","240","164","154.6796","220.0396","39360","39360","34035.6388","dc","null","null","null","null","null","null","[1,3]"
"","canvas-keyboard-response","254","312203","0.0-6.0-2.41","37","","","","","rectangles","null","null","","","critical","d","t","c","154.6796","220.0396","164","240","240","164","spektor","0.14","h","164","240","240","164","154.6796","220.0396","39360","39360","34035.6388","dc","null","null","null","null","null","null","[1,3]"
"","canvas-keyboard-response","255","312361","0.0-6.0-3.41","37","","","","","clear_screen","null","null","","","critical","d","t","c","154.6796","220.0396","164","240","240","164","spektor","0.14","h","164","240","240","164","154.6796","220.0396","39360","39360","34035.6388","dc","null","null","null","null","null","null","[1,3]"
"","canvas-keyboard-response","256","319089","0.0-6.0-4.41","37","","","","","make choice","6718","1","","","critical","d","t","c","154.6796","220.0396","164","240","240","164","spektor","0.14","h","164","240","240","164","154.6796","220.0396","39360","39360","34035.6388","dc","null","null","null","null","null","null","[1,3]"
"","canvas-keyboard-response","257","319247","0.0-6.0-5.41","37","","","","","clear_screen","null","null","","","critical","d","t","c","154.6796","220.0396","164","240","240","164","spektor","0.14","h","164","240","240","164","154.6796","220.0396","39360","39360","34035.6388","dc","null","null","null","null","null","null","[1,3]"
"","canvas-keyboard-response","258","319448","0.0-6.0-0.42","37","","","","","pre trial waiting period","null","null","","","critical","c","d","t","164","240","220.0396","154.6796","240","164","spektor","0.14","w","240","164","164","240","220.0396","154.6796","39360","39360","34035.6388","tc","null","null","null","null","null","null","[3,1]"
"","canvas-keyboard-response","259","319612","0.0-6.0-1.42","37","","","","","clear_screen","null","null","","","critical","c","d","t","164","240","220.0396","154.6796","240","164","spektor","0.14","w","240","164","164","240","220.0396","154.6796","39360","39360","34035.6388","tc","null","null","null","null","null","null","[3,1]"
"","canvas-keyboard-response","260","320951","0.0-6.0-2.42","37","","","","","rectangles","null","null","","","critical","c","d","t","164","240","220.0396","154.6796","240","164","spektor","0.14","w","240","164","164","240","220.0396","154.6796","39360","39360","34035.6388","tc","null","null","null","null","null","null","[3,1]"
"","canvas-keyboard-response","261","321111","0.0-6.0-3.42","37","","","","","clear_screen","null","null","","","critical","c","d","t","164","240","220.0396","154.6796","240","164","spektor","0.14","w","240","164","164","240","220.0396","154.6796","39360","39360","34035.6388","tc","null","null","null","null","null","null","[3,1]"
"","canvas-keyboard-response","262","321969","0.0-6.0-4.42","37","","","","","make choice","850","1","","","critical","c","d","t","164","240","220.0396","154.6796","240","164","spektor","0.14","w","240","164","164","240","220.0396","154.6796","39360","39360","34035.6388","tc","null","null","null","null","null","null","[3,1]"
"","canvas-keyboard-response","263","322128","0.0-6.0-5.42","37","","","","","clear_screen","null","null","","","critical","c","d","t","164","240","220.0396","154.6796","240","164","spektor","0.14","w","240","164","164","240","220.0396","154.6796","39360","39360","34035.6388","tc","null","null","null","null","null","null","[3,1]"
"","canvas-keyboard-response","264","322330","0.0-6.0-0.43","37","","","","","pre trial waiting period","null","null","","","critical","d","t","c","164","240","164","240","240","164","spektor","0","h","164","240","240","164","164","240","39360","39360","39360","td","null","null","null","null","null","null","[2,1]"
"","canvas-keyboard-response","265","322489","0.0-6.0-1.43","37","","","","","clear_screen","null","null","","","critical","d","t","c","164","240","164","240","240","164","spektor","0","h","164","240","240","164","164","240","39360","39360","39360","td","null","null","null","null","null","null","[2,1]"
"","canvas-keyboard-response","266","323828","0.0-6.0-2.43","37","","","","","rectangles","null","null","","","critical","d","t","c","164","240","164","240","240","164","spektor","0","h","164","240","240","164","164","240","39360","39360","39360","td","null","null","null","null","null","null","[2,1]"
"","canvas-keyboard-response","267","323988","0.0-6.0-3.43","37","","","","","clear_screen","null","null","","","critical","d","t","c","164","240","164","240","240","164","spektor","0","h","164","240","240","164","164","240","39360","39360","39360","td","null","null","null","null","null","null","[2,1]"
"","canvas-keyboard-response","268","327770","0.0-6.0-4.43","37","","","","","make choice","3772","2","","","critical","d","t","c","164","240","164","240","240","164","spektor","0","h","164","240","240","164","164","240","39360","39360","39360","td","null","null","null","null","null","null","[2,1]"
"","canvas-keyboard-response","269","327933","0.0-6.0-5.43","37","","","","","clear_screen","null","null","","","critical","d","t","c","164","240","164","240","240","164","spektor","0","h","164","240","240","164","164","240","39360","39360","39360","td","null","null","null","null","null","null","[2,1]"
"","canvas-keyboard-response","270","328135","0.0-6.0-0.44","37","","","","","pre trial waiting period","null","null","","","critical","d","c","t","164","240","240","164","164","240","spektor","0","h","164","240","240","164","164","240","39360","39360","39360","tc","null","null","null","null","null","null","[3,2]"
"","canvas-keyboard-response","271","328300","0.0-6.0-1.44","37","","","","","clear_screen","null","null","","","critical","d","c","t","164","240","240","164","164","240","spektor","0","h","164","240","240","164","164","240","39360","39360","39360","tc","null","null","null","null","null","null","[3,2]"
"","canvas-keyboard-response","272","329640","0.0-6.0-2.44","37","","","","","rectangles","null","null","","","critical","d","c","t","164","240","240","164","164","240","spektor","0","h","164","240","240","164","164","240","39360","39360","39360","tc","null","null","null","null","null","null","[3,2]"
"","canvas-keyboard-response","273","329799","0.0-6.0-3.44","37","","","","","clear_screen","null","null","","","critical","d","c","t","164","240","240","164","164","240","spektor","0","h","164","240","240","164","164","240","39360","39360","39360","tc","null","null","null","null","null","null","[3,2]"
"","canvas-keyboard-response","274","331121","0.0-6.0-4.44","37","","","","","make choice","1314","3","","","critical","d","c","t","164","240","240","164","164","240","spektor","0","h","164","240","240","164","164","240","39360","39360","39360","tc","null","null","null","null","null","null","[3,2]"
"","canvas-keyboard-response","275","331279","0.0-6.0-5.44","37","","","","","clear_screen","null","null","","","critical","d","c","t","164","240","240","164","164","240","spektor","0","h","164","240","240","164","164","240","39360","39360","39360","tc","null","null","null","null","null","null","[3,2]"
"","canvas-keyboard-response","276","331480","0.0-6.0-0.45","37","","","","","pre trial waiting period","null","null","","","critical","d","t","c","160.6713","232.8713","164","240","240","164","trueblood","0.05","h","164","240","240","164","160.6713","232.8713","39360","39360","37415.7294","dc","null","null","null","null","null","null","[1,3]"
"","canvas-keyboard-response","277","331641","0.0-6.0-1.45","37","","","","","clear_screen","null","null","","","critical","d","t","c","160.6713","232.8713","164","240","240","164","trueblood","0.05","h","164","240","240","164","160.6713","232.8713","39360","39360","37415.7294","dc","null","null","null","null","null","null","[1,3]"
"","canvas-keyboard-response","278","332977","0.0-6.0-2.45","37","","","","","rectangles","null","null","","","critical","d","t","c","160.6713","232.8713","164","240","240","164","trueblood","0.05","h","164","240","240","164","160.6713","232.8713","39360","39360","37415.7294","dc","null","null","null","null","null","null","[1,3]"
"","canvas-keyboard-response","279","333140","0.0-6.0-3.45","37","","","","","clear_screen","null","null","","","critical","d","t","c","160.6713","232.8713","164","240","240","164","trueblood","0.05","h","164","240","240","164","160.6713","232.8713","39360","39360","37415.7294","dc","null","null","null","null","null","null","[1,3]"
"","canvas-keyboard-response","280","336218","0.0-6.0-4.45","37","","","","","make choice","3065","3","","","critical","d","t","c","160.6713","232.8713","164","240","240","164","trueblood","0.05","h","164","240","240","164","160.6713","232.8713","39360","39360","37415.7294","dc","null","null","null","null","null","null","[1,3]"
"","canvas-keyboard-response","281","336376","0.0-6.0-5.45","37","","","","","clear_screen","null","null","","","critical","d","t","c","160.6713","232.8713","164","240","240","164","trueblood","0.05","h","164","240","240","164","160.6713","232.8713","39360","39360","37415.7294","dc","null","null","null","null","null","null","[1,3]"
"","canvas-keyboard-response","282","336578","0.0-6.0-0.46","37","","","","","pre trial waiting period","null","null","","","critical","d","t","c","160.6713","232.8713","164","240","240","164","spektor","0.05","h","164","240","240","164","160.6713","232.8713","39360","39360","37415.7294","tc","null","null","null","null","null","null","[2,3]"
"","canvas-keyboard-response","283","336740","0.0-6.0-1.46","37","","","","","clear_screen","null","null","","","critical","d","t","c","160.6713","232.8713","164","240","240","164","spektor","0.05","h","164","240","240","164","160.6713","232.8713","39360","39360","37415.7294","tc","null","null","null","null","null","null","[2,3]"
"","canvas-keyboard-response","284","338079","0.0-6.0-2.46","37","","","","","rectangles","null","null","","","critical","d","t","c","160.6713","232.8713","164","240","240","164","spektor","0.05","h","164","240","240","164","160.6713","232.8713","39360","39360","37415.7294","tc","null","null","null","null","null","null","[2,3]"
"","canvas-keyboard-response","285","338237","0.0-6.0-3.46","37","","","","","clear_screen","null","null","","","critical","d","t","c","160.6713","232.8713","164","240","240","164","spektor","0.05","h","164","240","240","164","160.6713","232.8713","39360","39360","37415.7294","tc","null","null","null","null","null","null","[2,3]"
"","canvas-keyboard-response","286","339400","0.0-6.0-4.46","37","","","","","make choice","1155","2","","","critical","d","t","c","160.6713","232.8713","164","240","240","164","spektor","0.05","h","164","240","240","164","160.6713","232.8713","39360","39360","37415.7294","tc","null","null","null","null","null","null","[2,3]"
"","canvas-keyboard-response","287","339555","0.0-6.0-5.46","37","","","","","clear_screen","null","null","","","critical","d","t","c","160.6713","232.8713","164","240","240","164","spektor","0.05","h","164","240","240","164","160.6713","232.8713","39360","39360","37415.7294","tc","null","null","null","null","null","null","[2,3]"
"","canvas-keyboard-response","288","339757","0.0-6.0-0.47","37","","","","","pre trial waiting period","null","null","","","catch","sh","l","sw","161","140","221","279","149","169","spektor","null","null","null","null","null","null","null","null","null","null","null","","180","200","260","200","36000","52000","[2,3]"
"","canvas-keyboard-response","289","339918","0.0-6.0-1.47","37","","","","","clear_screen","null","null","","","catch","sh","l","sw","161","140","221","279","149","169","spektor","null","null","null","null","null","null","null","null","null","null","null","","180","200","260","200","36000","52000","[2,3]"
"","canvas-keyboard-response","290","341256","0.0-6.0-2.47","37","","","","","rectangles","null","null","","","catch","sh","l","sw","161","140","221","279","149","169","spektor","null","null","null","null","null","null","null","null","null","null","null","","180","200","260","200","36000","52000","[2,3]"
"","canvas-keyboard-response","291","341419","0.0-6.0-3.47","37","","","","","clear_screen","null","null","","","catch","sh","l","sw","161","140","221","279","149","169","spektor","null","null","null","null","null","null","null","null","null","null","null","","180","200","260","200","36000","52000","[2,3]"
"","canvas-keyboard-response","292","342393","0.0-6.0-4.47","37","","","","","make choice","962","2","","","catch","sh","l","sw","161","140","221","279","149","169","spektor","null","null","null","null","null","null","null","null","null","null","null","","180","200","260","200","36000","52000","[2,3]"
"","canvas-keyboard-response","293","342552","0.0-6.0-5.47","37","","","","","clear_screen","null","null","","","catch","sh","l","sw","161","140","221","279","149","169","spektor","null","null","null","null","null","null","null","null","null","null","null","","180","200","260","200","36000","52000","[2,3]"
"","canvas-keyboard-response","294","342752","0.0-6.0-0.48","37","","","","","pre trial waiting period","null","null","","","critical","c","d","t","164","240","240","164","240","164","spektor","0","w","240","164","164","240","240","164","39360","39360","39360","tc","null","null","null","null","null","null","[3,1]"
"","canvas-keyboard-response","295","342915","0.0-6.0-1.48","37","","","","","clear_screen","null","null","","","critical","c","d","t","164","240","240","164","240","164","spektor","0","w","240","164","164","240","240","164","39360","39360","39360","tc","null","null","null","null","null","null","[3,1]"
"","canvas-keyboard-response","296","344251","0.0-6.0-2.48","37","","","","","rectangles","null","null","","","critical","c","d","t","164","240","240","164","240","164","spektor","0","w","240","164","164","240","240","164","39360","39360","39360","tc","null","null","null","null","null","null","[3,1]"
"","canvas-keyboard-response","297","344409","0.0-6.0-3.48","37","","","","","clear_screen","null","null","","","critical","c","d","t","164","240","240","164","240","164","spektor","0","w","240","164","164","240","240","164","39360","39360","39360","tc","null","null","null","null","null","null","[3,1]"
"","canvas-keyboard-response","298","345641","0.0-6.0-4.48","37","","","","","make choice","1222","1","","","critical","c","d","t","164","240","240","164","240","164","spektor","0","w","240","164","164","240","240","164","39360","39360","39360","tc","null","null","null","null","null","null","[3,1]"
"","canvas-keyboard-response","299","345800","0.0-6.0-5.48","37","","","","","clear_screen","null","null","","","critical","c","d","t","164","240","240","164","240","164","spektor","0","w","240","164","164","240","240","164","39360","39360","39360","tc","null","null","null","null","null","null","[3,1]"
"","canvas-keyboard-response","300","346003","0.0-6.0-0.49","37","","","","","pre trial waiting period","null","null","","","catch","sh","sw","l","239","163","146","175","179","285","spektor","null","null","null","null","null","null","null","null","null","null","null","","180","200","260","200","36000","52000","[1,3]"
"","canvas-keyboard-response","301","346161","0.0-6.0-1.49","37","","","","","clear_screen","null","null","","","catch","sh","sw","l","239","163","146","175","179","285","spektor","null","null","null","null","null","null","null","null","null","null","null","","180","200","260","200","36000","52000","[1,3]"
"","canvas-keyboard-response","302","347494","0.0-6.0-2.49","37","","","","","rectangles","null","null","","","catch","sh","sw","l","239","163","146","175","179","285","spektor","null","null","null","null","null","null","null","null","null","null","null","","180","200","260","200","36000","52000","[1,3]"
"","canvas-keyboard-response","303","347652","0.0-6.0-3.49","37","","","","","clear_screen","null","null","","","catch","sh","sw","l","239","163","146","175","179","285","spektor","null","null","null","null","null","null","null","null","null","null","null","","180","200","260","200","36000","52000","[1,3]"
"","canvas-keyboard-response","304","348513","0.0-6.0-4.49","37","","","","","make choice","849","3","","","catch","sh","sw","l","239","163","146","175","179","285","spektor","null","null","null","null","null","null","null","null","null","null","null","","180","200","260","200","36000","52000","[1,3]"
"","canvas-keyboard-response","305","348673","0.0-6.0-5.49","37","","","","","clear_screen","null","null","","","catch","sh","sw","l","239","163","146","175","179","285","spektor","null","null","null","null","null","null","null","null","null","null","null","","180","200","260","200","36000","52000","[1,3]"
