success,trial_type,trial_index,time_elapsed,internal_node_id,sub_n,timeout,failed_images,failed_audio,failed_video,screen_id,rt,response,stimulus,view_history,trial,r1,r2,r3,w1,h1,w2,h2,w3,h3,display,tdd,tdo,tw,th,cw,ch,dw,dh,ta,ca,da,probe,csls,csss,clls,clss,sa,la,probe_rects
TRUE,fullscreen,0,3486,0.0-0.0,5019,NA,NA,NA,NA,NA,NA,NA,NA,NA,NA,NA,NA,NA,NA,NA,NA,NA,NA,NA,NA,NA,NA,NA,NA,NA,NA,NA,NA,NA,NA,NA,NA,NA,NA,NA,NA,NA,NA,NA
TRUE,preload,1,3498,0.0-1.0,5019,FALSE,NA,NA,NA,img preload,NA,NA,NA,NA,NA,NA,NA,NA,NA,NA,NA,NA,NA,NA,NA,NA,NA,NA,NA,NA,NA,NA,NA,NA,NA,NA,NA,NA,NA,NA,NA,NA,NA,NA
NA,survey-html-form,2,6521,0.0-2.0,5019,NA,NA,NA,NA,enter-sub-number,3016,"{""response"":""11""}",NA,NA,NA,NA,NA,NA,NA,NA,NA,NA,NA,NA,NA,NA,NA,NA,NA,NA,NA,NA,NA,NA,NA,NA,NA,NA,NA,NA,NA,NA,NA,NA
NA,image-button-response,3,8702,0.0-3.0,5019,NA,NA,NA,NA,NA,2115,0,consent.png,NA,NA,NA,NA,NA,NA,NA,NA,NA,NA,NA,NA,NA,NA,NA,NA,NA,NA,NA,NA,NA,NA,NA,NA,NA,NA,NA,NA,NA,NA,NA
NA,html-button-response,4,11773,0.0-4.0,5019,NA,NA,NA,NA,intro mssg,3067,0,"<div style= ""font-size:25px;"" <p> <strong> Welcome! </strong><br> <p style=""color:#8B0000; font-size:25px;""><strong> Please do NOT exit full screen until you are done with the experiment. </strong> </p><p style=""font-size:25px;color:#8B0000;""> <strong> Your data will be lost <br> if you try to go back or refresh the page after the experiment starts. Feel free to click ""previous"" during the instructions, however.</strong> </p><br><p> <strong> Thanks in advance for your contribution to our research! </strong></p>",NA,NA,NA,NA,NA,NA,NA,NA,NA,NA,NA,NA,NA,NA,NA,NA,NA,NA,NA,NA,NA,NA,NA,NA,NA,NA,NA,NA,NA,NA,NA
NA,instructions,5,36189,0.0-5.0,5019,NA,NA,NA,NA,instructions,24411,NA,NA,NA,NA,NA,NA,NA,NA,NA,NA,NA,NA,NA,NA,NA,NA,NA,NA,NA,NA,NA,NA,NA,NA,NA,NA,NA,NA,NA,NA,NA,NA,NA
NA,canvas-keyboard-response,6,36396,0.0-6.0-0.0,5019,NA,NA,NA,NA,pre trial waiting period,null,null,NA,NA,critical,c,d,t,240,164,164,240,164,240,trueblood,0,h,164,240,240,164,164,240,39360,39360,39360,tc,null,null,null,null,null,null,"[3,1]"
NA,canvas-keyboard-response,7,36560,0.0-6.0-1.0,5019,NA,NA,NA,NA,clear_screen,null,null,NA,NA,critical,c,d,t,240,164,164,240,164,240,trueblood,0,h,164,240,240,164,164,240,39360,39360,39360,tc,null,null,null,null,null,null,"[3,1]"
NA,canvas-keyboard-response,8,37902,0.0-6.0-2.0,5019,NA,NA,NA,NA,rectangles,null,null,NA,NA,critical,c,d,t,240,164,164,240,164,240,trueblood,0,h,164,240,240,164,164,240,39360,39360,39360,tc,null,null,null,null,null,null,"[3,1]"
NA,canvas-keyboard-response,9,38065,0.0-6.0-3.0,5019,NA,NA,NA,NA,clear_screen,null,null,NA,NA,critical,c,d,t,240,164,164,240,164,240,trueblood,0,h,164,240,240,164,164,240,39360,39360,39360,tc,null,null,null,null,null,null,"[3,1]"
NA,canvas-keyboard-response,10,39972,0.0-6.0-4.0,5019,NA,NA,NA,NA,make choice,1893,1,NA,NA,critical,c,d,t,240,164,164,240,164,240,trueblood,0,h,164,240,240,164,164,240,39360,39360,39360,tc,null,null,null,null,null,null,"[3,1]"
NA,canvas-keyboard-response,11,40134,0.0-6.0-5.0,5019,NA,NA,NA,NA,clear_screen,null,null,NA,NA,critical,c,d,t,240,164,164,240,164,240,trueblood,0,h,164,240,240,164,164,240,39360,39360,39360,tc,null,null,null,null,null,null,"[3,1]"
NA,canvas-keyboard-response,12,40340,0.0-6.0-0.1,5019,NA,NA,NA,NA,pre trial waiting period,null,null,NA,NA,critical,t,d,c,240,164,227.1683,158.0083,164,240,trueblood,0.09,w,240,164,164,240,227.1683,158.0083,39360,39360,35894.4834,tc,null,null,null,null,null,null,"[1,3]"
NA,canvas-keyboard-response,13,40499,0.0-6.0-1.1,5019,NA,NA,NA,NA,clear_screen,null,null,NA,NA,critical,t,d,c,240,164,227.1683,158.0083,164,240,trueblood,0.09,w,240,164,164,240,227.1683,158.0083,39360,39360,35894.4834,tc,null,null,null,null,null,null,"[1,3]"
NA,canvas-keyboard-response,14,41837,0.0-6.0-2.1,5019,NA,NA,NA,NA,rectangles,null,null,NA,NA,critical,t,d,c,240,164,227.1683,158.0083,164,240,trueblood,0.09,w,240,164,164,240,227.1683,158.0083,39360,39360,35894.4834,tc,null,null,null,null,null,null,"[1,3]"
NA,canvas-keyboard-response,15,41999,0.0-6.0-3.1,5019,NA,NA,NA,NA,clear_screen,null,null,NA,NA,critical,t,d,c,240,164,227.1683,158.0083,164,240,trueblood,0.09,w,240,164,164,240,227.1683,158.0083,39360,39360,35894.4834,tc,null,null,null,null,null,null,"[1,3]"
NA,canvas-keyboard-response,16,42852,0.0-6.0-4.1,5019,NA,NA,NA,NA,make choice,838,1,NA,NA,critical,t,d,c,240,164,227.1683,158.0083,164,240,trueblood,0.09,w,240,164,164,240,227.1683,158.0083,39360,39360,35894.4834,tc,null,null,null,null,null,null,"[1,3]"
NA,canvas-keyboard-response,17,43012,0.0-6.0-5.1,5019,NA,NA,NA,NA,clear_screen,null,null,NA,NA,critical,t,d,c,240,164,227.1683,158.0083,164,240,trueblood,0.09,w,240,164,164,240,227.1683,158.0083,39360,39360,35894.4834,tc,null,null,null,null,null,null,"[1,3]"
NA,canvas-keyboard-response,18,43224,0.0-6.0-0.2,5019,NA,NA,NA,NA,pre trial waiting period,null,null,NA,NA,catch,sh,sw,l,218,215,143,185,287,190,spektor,null,null,null,null,null,null,null,null,null,null,null,NA,180,200,260,200,36000,52000,"[1,3]"
NA,canvas-keyboard-response,19,43385,0.0-6.0-1.2,5019,NA,NA,NA,NA,clear_screen,null,null,NA,NA,catch,sh,sw,l,218,215,143,185,287,190,spektor,null,null,null,null,null,null,null,null,null,null,null,NA,180,200,260,200,36000,52000,"[1,3]"
NA,canvas-keyboard-response,20,44724,0.0-6.0-2.2,5019,NA,NA,NA,NA,rectangles,null,null,NA,NA,catch,sh,sw,l,218,215,143,185,287,190,spektor,null,null,null,null,null,null,null,null,null,null,null,NA,180,200,260,200,36000,52000,"[1,3]"
NA,canvas-keyboard-response,21,44889,0.0-6.0-3.2,5019,NA,NA,NA,NA,clear_screen,null,null,NA,NA,catch,sh,sw,l,218,215,143,185,287,190,spektor,null,null,null,null,null,null,null,null,null,null,null,NA,180,200,260,200,36000,52000,"[1,3]"
NA,canvas-keyboard-response,22,46340,0.0-6.0-4.2,5019,NA,NA,NA,NA,make choice,1439,3,NA,NA,catch,sh,sw,l,218,215,143,185,287,190,spektor,null,null,null,null,null,null,null,null,null,null,null,NA,180,200,260,200,36000,52000,"[1,3]"
NA,canvas-keyboard-response,23,46502,0.0-6.0-5.2,5019,NA,NA,NA,NA,clear_screen,null,null,NA,NA,catch,sh,sw,l,218,215,143,185,287,190,spektor,null,null,null,null,null,null,null,null,null,null,null,NA,180,200,260,200,36000,52000,"[1,3]"
NA,canvas-keyboard-response,24,46708,0.0-6.0-0.3,5019,NA,NA,NA,NA,pre trial waiting period,null,null,NA,NA,critical,d,t,c,237.1485,162.6685,240,164,164,240,trueblood,0.02,w,240,164,164,240,237.1485,162.6685,39360,39360,38576.5967,tc,null,null,null,null,null,null,"[2,3]"
NA,canvas-keyboard-response,25,46871,0.0-6.0-1.3,5019,NA,NA,NA,NA,clear_screen,null,null,NA,NA,critical,d,t,c,237.1485,162.6685,240,164,164,240,trueblood,0.02,w,240,164,164,240,237.1485,162.6685,39360,39360,38576.5967,tc,null,null,null,null,null,null,"[2,3]"
NA,canvas-keyboard-response,26,48210,0.0-6.0-2.3,5019,NA,NA,NA,NA,rectangles,null,null,NA,NA,critical,d,t,c,237.1485,162.6685,240,164,164,240,trueblood,0.02,w,240,164,164,240,237.1485,162.6685,39360,39360,38576.5967,tc,null,null,null,null,null,null,"[2,3]"
NA,canvas-keyboard-response,27,48372,0.0-6.0-3.3,5019,NA,NA,NA,NA,clear_screen,null,null,NA,NA,critical,d,t,c,237.1485,162.6685,240,164,164,240,trueblood,0.02,w,240,164,164,240,237.1485,162.6685,39360,39360,38576.5967,tc,null,null,null,null,null,null,"[2,3]"
NA,canvas-keyboard-response,28,51308,0.0-6.0-4.3,5019,NA,NA,NA,NA,make choice,2926,2,NA,NA,critical,d,t,c,237.1485,162.6685,240,164,164,240,trueblood,0.02,w,240,164,164,240,237.1485,162.6685,39360,39360,38576.5967,tc,null,null,null,null,null,null,"[2,3]"
NA,canvas-keyboard-response,29,51470,0.0-6.0-5.3,5019,NA,NA,NA,NA,clear_screen,null,null,NA,NA,critical,d,t,c,237.1485,162.6685,240,164,164,240,trueblood,0.02,w,240,164,164,240,237.1485,162.6685,39360,39360,38576.5967,tc,null,null,null,null,null,null,"[2,3]"
NA,canvas-keyboard-response,30,51676,0.0-6.0-0.4,5019,NA,NA,NA,NA,pre trial waiting period,null,null,NA,NA,catch,sh,l,sw,189,163,250,212,147,170,spektor,null,null,null,null,null,null,null,null,null,null,null,NA,180,200,260,200,36000,52000,"[1,2]"
NA,canvas-keyboard-response,31,51832,0.0-6.0-1.4,5019,NA,NA,NA,NA,clear_screen,null,null,NA,NA,catch,sh,l,sw,189,163,250,212,147,170,spektor,null,null,null,null,null,null,null,null,null,null,null,NA,180,200,260,200,36000,52000,"[1,2]"
NA,canvas-keyboard-response,32,53171,0.0-6.0-2.4,5019,NA,NA,NA,NA,rectangles,null,null,NA,NA,catch,sh,l,sw,189,163,250,212,147,170,spektor,null,null,null,null,null,null,null,null,null,null,null,NA,180,200,260,200,36000,52000,"[1,2]"
NA,canvas-keyboard-response,33,53334,0.0-6.0-3.4,5019,NA,NA,NA,NA,clear_screen,null,null,NA,NA,catch,sh,l,sw,189,163,250,212,147,170,spektor,null,null,null,null,null,null,null,null,null,null,null,NA,180,200,260,200,36000,52000,"[1,2]"
NA,canvas-keyboard-response,34,54068,0.0-6.0-4.4,5019,NA,NA,NA,NA,make choice,722,2,NA,NA,catch,sh,l,sw,189,163,250,212,147,170,spektor,null,null,null,null,null,null,null,null,null,null,null,NA,180,200,260,200,36000,52000,"[1,2]"
NA,canvas-keyboard-response,35,54230,0.0-6.0-5.4,5019,NA,NA,NA,NA,clear_screen,null,null,NA,NA,catch,sh,l,sw,189,163,250,212,147,170,spektor,null,null,null,null,null,null,null,null,null,null,null,NA,180,200,260,200,36000,52000,"[1,2]"
NA,canvas-keyboard-response,36,54436,0.0-6.0-0.5,5019,NA,NA,NA,NA,pre trial waiting period,null,null,NA,NA,catch,sh,l,sw,186,162,221,264,209,221,trueblood,null,null,null,null,null,null,null,null,null,null,null,NA,180,200,260,200,36000,52000,"[1,2]"
NA,canvas-keyboard-response,37,54598,0.0-6.0-1.5,5019,NA,NA,NA,NA,clear_screen,null,null,NA,NA,catch,sh,l,sw,186,162,221,264,209,221,trueblood,null,null,null,null,null,null,null,null,null,null,null,NA,180,200,260,200,36000,52000,"[1,2]"
NA,canvas-keyboard-response,38,55938,0.0-6.0-2.5,5019,NA,NA,NA,NA,rectangles,null,null,NA,NA,catch,sh,l,sw,186,162,221,264,209,221,trueblood,null,null,null,null,null,null,null,null,null,null,null,NA,180,200,260,200,36000,52000,"[1,2]"
NA,canvas-keyboard-response,39,56102,0.0-6.0-3.5,5019,NA,NA,NA,NA,clear_screen,null,null,NA,NA,catch,sh,l,sw,186,162,221,264,209,221,trueblood,null,null,null,null,null,null,null,null,null,null,null,NA,180,200,260,200,36000,52000,"[1,2]"
NA,canvas-keyboard-response,40,56892,0.0-6.0-4.5,5019,NA,NA,NA,NA,make choice,777,2,NA,NA,catch,sh,l,sw,186,162,221,264,209,221,trueblood,null,null,null,null,null,null,null,null,null,null,null,NA,180,200,260,200,36000,52000,"[1,2]"
NA,canvas-keyboard-response,41,57054,0.0-6.0-5.5,5019,NA,NA,NA,NA,clear_screen,null,null,NA,NA,catch,sh,l,sw,186,162,221,264,209,221,trueblood,null,null,null,null,null,null,null,null,null,null,null,NA,180,200,260,200,36000,52000,"[1,2]"
NA,canvas-keyboard-response,42,57263,0.0-6.0-0.6,5019,NA,NA,NA,NA,pre trial waiting period,null,null,NA,NA,catch,sw,l,sh,180,200,176,281,221,214,spektor,null,null,null,null,null,null,null,null,null,null,null,NA,180,200,260,200,36000,52000,"[2,3]"
NA,canvas-keyboard-response,43,57420,0.0-6.0-1.6,5019,NA,NA,NA,NA,clear_screen,null,null,NA,NA,catch,sw,l,sh,180,200,176,281,221,214,spektor,null,null,null,null,null,null,null,null,null,null,null,NA,180,200,260,200,36000,52000,"[2,3]"
NA,canvas-keyboard-response,44,58757,0.0-6.0-2.6,5019,NA,NA,NA,NA,rectangles,null,null,NA,NA,catch,sw,l,sh,180,200,176,281,221,214,spektor,null,null,null,null,null,null,null,null,null,null,null,NA,180,200,260,200,36000,52000,"[2,3]"
NA,canvas-keyboard-response,45,58920,0.0-6.0-3.6,5019,NA,NA,NA,NA,clear_screen,null,null,NA,NA,catch,sw,l,sh,180,200,176,281,221,214,spektor,null,null,null,null,null,null,null,null,null,null,null,NA,180,200,260,200,36000,52000,"[2,3]"
NA,canvas-keyboard-response,46,59780,0.0-6.0-4.6,5019,NA,NA,NA,NA,make choice,853,2,NA,NA,catch,sw,l,sh,180,200,176,281,221,214,spektor,null,null,null,null,null,null,null,null,null,null,null,NA,180,200,260,200,36000,52000,"[2,3]"
NA,canvas-keyboard-response,47,59942,0.0-6.0-5.6,5019,NA,NA,NA,NA,clear_screen,null,null,NA,NA,catch,sw,l,sh,180,200,176,281,221,214,spektor,null,null,null,null,null,null,null,null,null,null,null,NA,180,200,260,200,36000,52000,"[2,3]"
NA,canvas-keyboard-response,48,60149,0.0-6.0-0.7,5019,NA,NA,NA,NA,pre trial waiting period,null,null,NA,NA,critical,d,c,t,237.1485,162.6685,164,240,240,164,spektor,0.02,w,240,164,164,240,237.1485,162.6685,39360,39360,38576.5967,td,null,null,null,null,null,null,"[3,1]"
NA,canvas-keyboard-response,49,60303,0.0-6.0-1.7,5019,NA,NA,NA,NA,clear_screen,null,null,NA,NA,critical,d,c,t,237.1485,162.6685,164,240,240,164,spektor,0.02,w,240,164,164,240,237.1485,162.6685,39360,39360,38576.5967,td,null,null,null,null,null,null,"[3,1]"
NA,canvas-keyboard-response,50,61643,0.0-6.0-2.7,5019,NA,NA,NA,NA,rectangles,null,null,NA,NA,critical,d,c,t,237.1485,162.6685,164,240,240,164,spektor,0.02,w,240,164,164,240,237.1485,162.6685,39360,39360,38576.5967,td,null,null,null,null,null,null,"[3,1]"
NA,canvas-keyboard-response,51,61807,0.0-6.0-3.7,5019,NA,NA,NA,NA,clear_screen,null,null,NA,NA,critical,d,c,t,237.1485,162.6685,164,240,240,164,spektor,0.02,w,240,164,164,240,237.1485,162.6685,39360,39360,38576.5967,td,null,null,null,null,null,null,"[3,1]"
NA,canvas-keyboard-response,52,64524,0.0-6.0-4.7,5019,NA,NA,NA,NA,make choice,2705,3,NA,NA,critical,d,c,t,237.1485,162.6685,164,240,240,164,spektor,0.02,w,240,164,164,240,237.1485,162.6685,39360,39360,38576.5967,td,null,null,null,null,null,null,"[3,1]"
NA,canvas-keyboard-response,53,64685,0.0-6.0-5.7,5019,NA,NA,NA,NA,clear_screen,null,null,NA,NA,critical,d,c,t,237.1485,162.6685,164,240,240,164,spektor,0.02,w,240,164,164,240,237.1485,162.6685,39360,39360,38576.5967,td,null,null,null,null,null,null,"[3,1]"
NA,canvas-keyboard-response,54,64894,0.0-6.0-0.8,5019,NA,NA,NA,NA,pre trial waiting period,null,null,NA,NA,catch,sh,l,sw,218,211,181,295,200,218,spektor,null,null,null,null,null,null,null,null,null,null,null,NA,180,200,260,200,36000,52000,"[2,3]"
NA,canvas-keyboard-response,55,65048,0.0-6.0-1.8,5019,NA,NA,NA,NA,clear_screen,null,null,NA,NA,catch,sh,l,sw,218,211,181,295,200,218,spektor,null,null,null,null,null,null,null,null,null,null,null,NA,180,200,260,200,36000,52000,"[2,3]"
NA,canvas-keyboard-response,56,66388,0.0-6.0-2.8,5019,NA,NA,NA,NA,rectangles,null,null,NA,NA,catch,sh,l,sw,218,211,181,295,200,218,spektor,null,null,null,null,null,null,null,null,null,null,null,NA,180,200,260,200,36000,52000,"[2,3]"
NA,canvas-keyboard-response,57,66553,0.0-6.0-3.8,5019,NA,NA,NA,NA,clear_screen,null,null,NA,NA,catch,sh,l,sw,218,211,181,295,200,218,spektor,null,null,null,null,null,null,null,null,null,null,null,NA,180,200,260,200,36000,52000,"[2,3]"
NA,canvas-keyboard-response,58,67724,0.0-6.0-4.8,5019,NA,NA,NA,NA,make choice,1156,2,NA,NA,catch,sh,l,sw,218,211,181,295,200,218,spektor,null,null,null,null,null,null,null,null,null,null,null,NA,180,200,260,200,36000,52000,"[2,3]"
NA,canvas-keyboard-response,59,67884,0.0-6.0-5.8,5019,NA,NA,NA,NA,clear_screen,null,null,NA,NA,catch,sh,l,sw,218,211,181,295,200,218,spektor,null,null,null,null,null,null,null,null,null,null,null,NA,180,200,260,200,36000,52000,"[2,3]"
NA,canvas-keyboard-response,60,68093,0.0-6.0-0.9,5019,NA,NA,NA,NA,pre trial waiting period,null,null,NA,NA,catch,sh,sw,l,214,153,149,186,233,257,spektor,null,null,null,null,null,null,null,null,null,null,null,NA,180,200,260,200,36000,52000,"[1,3]"
NA,canvas-keyboard-response,61,68249,0.0-6.0-1.9,5019,NA,NA,NA,NA,clear_screen,null,null,NA,NA,catch,sh,sw,l,214,153,149,186,233,257,spektor,null,null,null,null,null,null,null,null,null,null,null,NA,180,200,260,200,36000,52000,"[1,3]"
NA,canvas-keyboard-response,62,69591,0.0-6.0-2.9,5019,NA,NA,NA,NA,rectangles,null,null,NA,NA,catch,sh,sw,l,214,153,149,186,233,257,spektor,null,null,null,null,null,null,null,null,null,null,null,NA,180,200,260,200,36000,52000,"[1,3]"
NA,canvas-keyboard-response,63,69758,0.0-6.0-3.9,5019,NA,NA,NA,NA,clear_screen,null,null,NA,NA,catch,sh,sw,l,214,153,149,186,233,257,spektor,null,null,null,null,null,null,null,null,null,null,null,NA,180,200,260,200,36000,52000,"[1,3]"
NA,canvas-keyboard-response,64,70331,0.0-6.0-4.9,5019,NA,NA,NA,NA,make choice,563,3,NA,NA,catch,sh,sw,l,214,153,149,186,233,257,spektor,null,null,null,null,null,null,null,null,null,null,null,NA,180,200,260,200,36000,52000,"[1,3]"
NA,canvas-keyboard-response,65,70495,0.0-6.0-5.9,5019,NA,NA,NA,NA,clear_screen,null,null,NA,NA,catch,sh,sw,l,214,153,149,186,233,257,spektor,null,null,null,null,null,null,null,null,null,null,null,NA,180,200,260,200,36000,52000,"[1,3]"
NA,canvas-keyboard-response,66,70704,0.0-6.0-0.10,5019,NA,NA,NA,NA,pre trial waiting period,null,null,NA,NA,critical,t,d,c,240,164,240,164,164,240,trueblood,0,w,240,164,164,240,240,164,39360,39360,39360,tc,null,null,null,null,null,null,"[1,3]"
NA,canvas-keyboard-response,67,70863,0.0-6.0-1.10,5019,NA,NA,NA,NA,clear_screen,null,null,NA,NA,critical,t,d,c,240,164,240,164,164,240,trueblood,0,w,240,164,164,240,240,164,39360,39360,39360,tc,null,null,null,null,null,null,"[1,3]"
NA,canvas-keyboard-response,68,72205,0.0-6.0-2.10,5019,NA,NA,NA,NA,rectangles,null,null,NA,NA,critical,t,d,c,240,164,240,164,164,240,trueblood,0,w,240,164,164,240,240,164,39360,39360,39360,tc,null,null,null,null,null,null,"[1,3]"
NA,canvas-keyboard-response,69,72376,0.0-6.0-3.10,5019,NA,NA,NA,NA,clear_screen,null,null,NA,NA,critical,t,d,c,240,164,240,164,164,240,trueblood,0,w,240,164,164,240,240,164,39360,39360,39360,tc,null,null,null,null,null,null,"[1,3]"
NA,canvas-keyboard-response,70,74060,0.0-6.0-4.10,5019,NA,NA,NA,NA,make choice,1666,1,NA,NA,critical,t,d,c,240,164,240,164,164,240,trueblood,0,w,240,164,164,240,240,164,39360,39360,39360,tc,null,null,null,null,null,null,"[1,3]"
NA,canvas-keyboard-response,71,74225,0.0-6.0-5.10,5019,NA,NA,NA,NA,clear_screen,null,null,NA,NA,critical,t,d,c,240,164,240,164,164,240,trueblood,0,w,240,164,164,240,240,164,39360,39360,39360,tc,null,null,null,null,null,null,"[1,3]"
NA,canvas-keyboard-response,72,74438,0.0-6.0-0.11,5019,NA,NA,NA,NA,pre trial waiting period,null,null,NA,NA,catch,sh,l,sw,201,146,223,177,173,192,spektor,null,null,null,null,null,null,null,null,null,null,null,NA,180,200,260,200,36000,52000,"[1,2]"
NA,canvas-keyboard-response,73,74597,0.0-6.0-1.11,5019,NA,NA,NA,NA,clear_screen,null,null,NA,NA,catch,sh,l,sw,201,146,223,177,173,192,spektor,null,null,null,null,null,null,null,null,null,null,null,NA,180,200,260,200,36000,52000,"[1,2]"
NA,canvas-keyboard-response,74,75942,0.0-6.0-2.11,5019,NA,NA,NA,NA,rectangles,null,null,NA,NA,catch,sh,l,sw,201,146,223,177,173,192,spektor,null,null,null,null,null,null,null,null,null,null,null,NA,180,200,260,200,36000,52000,"[1,2]"
NA,canvas-keyboard-response,75,76111,0.0-6.0-3.11,5019,NA,NA,NA,NA,clear_screen,null,null,NA,NA,catch,sh,l,sw,201,146,223,177,173,192,spektor,null,null,null,null,null,null,null,null,null,null,null,NA,180,200,260,200,36000,52000,"[1,2]"
NA,canvas-keyboard-response,76,77781,0.0-6.0-4.11,5019,NA,NA,NA,NA,make choice,1656,2,NA,NA,catch,sh,l,sw,201,146,223,177,173,192,spektor,null,null,null,null,null,null,null,null,null,null,null,NA,180,200,260,200,36000,52000,"[1,2]"
NA,canvas-keyboard-response,77,77942,0.0-6.0-5.11,5019,NA,NA,NA,NA,clear_screen,null,null,NA,NA,catch,sh,l,sw,201,146,223,177,173,192,spektor,null,null,null,null,null,null,null,null,null,null,null,NA,180,200,260,200,36000,52000,"[1,2]"
NA,canvas-keyboard-response,78,78155,0.0-6.0-0.12,5019,NA,NA,NA,NA,pre trial waiting period,null,null,NA,NA,critical,t,c,d,240,164,164,240,220.0396,154.6796,spektor,0.14,w,240,164,164,240,220.0396,154.6796,39360,39360,34035.6388,tc,null,null,null,null,null,null,"[1,2]"
NA,canvas-keyboard-response,79,78317,0.0-6.0-1.12,5019,NA,NA,NA,NA,clear_screen,null,null,NA,NA,critical,t,c,d,240,164,164,240,220.0396,154.6796,spektor,0.14,w,240,164,164,240,220.0396,154.6796,39360,39360,34035.6388,tc,null,null,null,null,null,null,"[1,2]"
NA,canvas-keyboard-response,80,79658,0.0-6.0-2.12,5019,NA,NA,NA,NA,rectangles,null,null,NA,NA,critical,t,c,d,240,164,164,240,220.0396,154.6796,spektor,0.14,w,240,164,164,240,220.0396,154.6796,39360,39360,34035.6388,tc,null,null,null,null,null,null,"[1,2]"
NA,canvas-keyboard-response,81,79822,0.0-6.0-3.12,5019,NA,NA,NA,NA,clear_screen,null,null,NA,NA,critical,t,c,d,240,164,164,240,220.0396,154.6796,spektor,0.14,w,240,164,164,240,220.0396,154.6796,39360,39360,34035.6388,tc,null,null,null,null,null,null,"[1,2]"
NA,canvas-keyboard-response,82,80916,0.0-6.0-4.12,5019,NA,NA,NA,NA,make choice,1084,1,NA,NA,critical,t,c,d,240,164,164,240,220.0396,154.6796,spektor,0.14,w,240,164,164,240,220.0396,154.6796,39360,39360,34035.6388,tc,null,null,null,null,null,null,"[1,2]"
NA,canvas-keyboard-response,83,81079,0.0-6.0-5.12,5019,NA,NA,NA,NA,clear_screen,null,null,NA,NA,critical,t,c,d,240,164,164,240,220.0396,154.6796,spektor,0.14,w,240,164,164,240,220.0396,154.6796,39360,39360,34035.6388,tc,null,null,null,null,null,null,"[1,2]"
NA,canvas-keyboard-response,84,81288,0.0-6.0-0.13,5019,NA,NA,NA,NA,pre trial waiting period,null,null,NA,NA,critical,t,d,c,240,164,240,164,164,240,spektor,0,w,240,164,164,240,240,164,39360,39360,39360,dc,null,null,null,null,null,null,"[2,3]"
NA,canvas-keyboard-response,85,81448,0.0-6.0-1.13,5019,NA,NA,NA,NA,clear_screen,null,null,NA,NA,critical,t,d,c,240,164,240,164,164,240,spektor,0,w,240,164,164,240,240,164,39360,39360,39360,dc,null,null,null,null,null,null,"[2,3]"
NA,canvas-keyboard-response,86,82791,0.0-6.0-2.13,5019,NA,NA,NA,NA,rectangles,null,null,NA,NA,critical,t,d,c,240,164,240,164,164,240,spektor,0,w,240,164,164,240,240,164,39360,39360,39360,dc,null,null,null,null,null,null,"[2,3]"
NA,canvas-keyboard-response,87,82957,0.0-6.0-3.13,5019,NA,NA,NA,NA,clear_screen,null,null,NA,NA,critical,t,d,c,240,164,240,164,164,240,spektor,0,w,240,164,164,240,240,164,39360,39360,39360,dc,null,null,null,null,null,null,"[2,3]"
NA,canvas-keyboard-response,88,84442,0.0-6.0-4.13,5019,NA,NA,NA,NA,make choice,1472,3,NA,NA,critical,t,d,c,240,164,240,164,164,240,spektor,0,w,240,164,164,240,240,164,39360,39360,39360,dc,null,null,null,null,null,null,"[2,3]"
NA,canvas-keyboard-response,89,84604,0.0-6.0-5.13,5019,NA,NA,NA,NA,clear_screen,null,null,NA,NA,critical,t,d,c,240,164,240,164,164,240,spektor,0,w,240,164,164,240,240,164,39360,39360,39360,dc,null,null,null,null,null,null,"[2,3]"
NA,canvas-keyboard-response,90,84814,0.0-6.0-0.14,5019,NA,NA,NA,NA,pre trial waiting period,null,null,NA,NA,critical,t,d,c,164,240,160.6713,232.8713,240,164,spektor,0.05,h,164,240,240,164,160.6713,232.8713,39360,39360,37415.7294,tc,null,null,null,null,null,null,"[1,3]"
NA,canvas-keyboard-response,91,84972,0.0-6.0-1.14,5019,NA,NA,NA,NA,clear_screen,null,null,NA,NA,critical,t,d,c,164,240,160.6713,232.8713,240,164,spektor,0.05,h,164,240,240,164,160.6713,232.8713,39360,39360,37415.7294,tc,null,null,null,null,null,null,"[1,3]"
NA,canvas-keyboard-response,92,86312,0.0-6.0-2.14,5019,NA,NA,NA,NA,rectangles,null,null,NA,NA,critical,t,d,c,164,240,160.6713,232.8713,240,164,spektor,0.05,h,164,240,240,164,160.6713,232.8713,39360,39360,37415.7294,tc,null,null,null,null,null,null,"[1,3]"
NA,canvas-keyboard-response,93,86475,0.0-6.0-3.14,5019,NA,NA,NA,NA,clear_screen,null,null,NA,NA,critical,t,d,c,164,240,160.6713,232.8713,240,164,spektor,0.05,h,164,240,240,164,160.6713,232.8713,39360,39360,37415.7294,tc,null,null,null,null,null,null,"[1,3]"
NA,canvas-keyboard-response,94,87076,0.0-6.0-4.14,5019,NA,NA,NA,NA,make choice,584,1,NA,NA,critical,t,d,c,164,240,160.6713,232.8713,240,164,spektor,0.05,h,164,240,240,164,160.6713,232.8713,39360,39360,37415.7294,tc,null,null,null,null,null,null,"[1,3]"
NA,canvas-keyboard-response,95,87240,0.0-6.0-5.14,5019,NA,NA,NA,NA,clear_screen,null,null,NA,NA,critical,t,d,c,164,240,160.6713,232.8713,240,164,spektor,0.05,h,164,240,240,164,160.6713,232.8713,39360,39360,37415.7294,tc,null,null,null,null,null,null,"[1,3]"
NA,canvas-keyboard-response,96,87452,0.0-6.0-0.15,5019,NA,NA,NA,NA,pre trial waiting period,null,null,NA,NA,catch,sh,l,sw,172,195,204,299,143,181,spektor,null,null,null,null,null,null,null,null,null,null,null,NA,180,200,260,200,36000,52000,"[1,2]"
NA,canvas-keyboard-response,97,87613,0.0-6.0-1.15,5019,NA,NA,NA,NA,clear_screen,null,null,NA,NA,catch,sh,l,sw,172,195,204,299,143,181,spektor,null,null,null,null,null,null,null,null,null,null,null,NA,180,200,260,200,36000,52000,"[1,2]"
NA,canvas-keyboard-response,98,88953,0.0-6.0-2.15,5019,NA,NA,NA,NA,rectangles,null,null,NA,NA,catch,sh,l,sw,172,195,204,299,143,181,spektor,null,null,null,null,null,null,null,null,null,null,null,NA,180,200,260,200,36000,52000,"[1,2]"
NA,canvas-keyboard-response,99,89118,0.0-6.0-3.15,5019,NA,NA,NA,NA,clear_screen,null,null,NA,NA,catch,sh,l,sw,172,195,204,299,143,181,spektor,null,null,null,null,null,null,null,null,null,null,null,NA,180,200,260,200,36000,52000,"[1,2]"
NA,canvas-keyboard-response,100,89794,0.0-6.0-4.15,5019,NA,NA,NA,NA,make choice,662,2,NA,NA,catch,sh,l,sw,172,195,204,299,143,181,spektor,null,null,null,null,null,null,null,null,null,null,null,NA,180,200,260,200,36000,52000,"[1,2]"
NA,canvas-keyboard-response,101,89958,0.0-6.0-5.15,5019,NA,NA,NA,NA,clear_screen,null,null,NA,NA,catch,sh,l,sw,172,195,204,299,143,181,spektor,null,null,null,null,null,null,null,null,null,null,null,NA,180,200,260,200,36000,52000,"[1,2]"
NA,canvas-keyboard-response,102,90164,0.0-6.0-0.16,5019,NA,NA,NA,NA,pre trial waiting period,null,null,NA,NA,critical,c,t,d,240,164,164,240,154.6796,220.0396,trueblood,0.14,h,164,240,240,164,154.6796,220.0396,39360,39360,34035.6388,td,null,null,null,null,null,null,"[2,3]"
NA,canvas-keyboard-response,103,90324,0.0-6.0-1.16,5019,NA,NA,NA,NA,clear_screen,null,null,NA,NA,critical,c,t,d,240,164,164,240,154.6796,220.0396,trueblood,0.14,h,164,240,240,164,154.6796,220.0396,39360,39360,34035.6388,td,null,null,null,null,null,null,"[2,3]"
NA,canvas-keyboard-response,104,91663,0.0-6.0-2.16,5019,NA,NA,NA,NA,rectangles,null,null,NA,NA,critical,c,t,d,240,164,164,240,154.6796,220.0396,trueblood,0.14,h,164,240,240,164,154.6796,220.0396,39360,39360,34035.6388,td,null,null,null,null,null,null,"[2,3]"
NA,canvas-keyboard-response,105,91827,0.0-6.0-3.16,5019,NA,NA,NA,NA,clear_screen,null,null,NA,NA,critical,c,t,d,240,164,164,240,154.6796,220.0396,trueblood,0.14,h,164,240,240,164,154.6796,220.0396,39360,39360,34035.6388,td,null,null,null,null,null,null,"[2,3]"
NA,canvas-keyboard-response,106,93564,0.0-6.0-4.16,5019,NA,NA,NA,NA,make choice,1718,2,NA,NA,critical,c,t,d,240,164,164,240,154.6796,220.0396,trueblood,0.14,h,164,240,240,164,154.6796,220.0396,39360,39360,34035.6388,td,null,null,null,null,null,null,"[2,3]"
NA,canvas-keyboard-response,107,93728,0.0-6.0-5.16,5019,NA,NA,NA,NA,clear_screen,null,null,NA,NA,critical,c,t,d,240,164,164,240,154.6796,220.0396,trueblood,0.14,h,164,240,240,164,154.6796,220.0396,39360,39360,34035.6388,td,null,null,null,null,null,null,"[2,3]"
NA,canvas-keyboard-response,108,93936,0.0-6.0-0.17,5019,NA,NA,NA,NA,pre trial waiting period,null,null,NA,NA,critical,t,d,c,164,240,158.0083,227.1683,240,164,trueblood,0.09,h,164,240,240,164,158.0083,227.1683,39360,39360,35894.4834,dc,null,null,null,null,null,null,"[2,3]"
NA,canvas-keyboard-response,109,94091,0.0-6.0-1.17,5019,NA,NA,NA,NA,clear_screen,null,null,NA,NA,critical,t,d,c,164,240,158.0083,227.1683,240,164,trueblood,0.09,h,164,240,240,164,158.0083,227.1683,39360,39360,35894.4834,dc,null,null,null,null,null,null,"[2,3]"
NA,canvas-keyboard-response,110,95433,0.0-6.0-2.17,5019,NA,NA,NA,NA,rectangles,null,null,NA,NA,critical,t,d,c,164,240,158.0083,227.1683,240,164,trueblood,0.09,h,164,240,240,164,158.0083,227.1683,39360,39360,35894.4834,dc,null,null,null,null,null,null,"[2,3]"
NA,canvas-keyboard-response,111,95600,0.0-6.0-3.17,5019,NA,NA,NA,NA,clear_screen,null,null,NA,NA,critical,t,d,c,164,240,158.0083,227.1683,240,164,trueblood,0.09,h,164,240,240,164,158.0083,227.1683,39360,39360,35894.4834,dc,null,null,null,null,null,null,"[2,3]"
NA,canvas-keyboard-response,112,100020,0.0-6.0-4.17,5019,NA,NA,NA,NA,make choice,4404,2,NA,NA,critical,t,d,c,164,240,158.0083,227.1683,240,164,trueblood,0.09,h,164,240,240,164,158.0083,227.1683,39360,39360,35894.4834,dc,null,null,null,null,null,null,"[2,3]"
NA,canvas-keyboard-response,113,100188,0.0-6.0-5.17,5019,NA,NA,NA,NA,clear_screen,null,null,NA,NA,critical,t,d,c,164,240,158.0083,227.1683,240,164,trueblood,0.09,h,164,240,240,164,158.0083,227.1683,39360,39360,35894.4834,dc,null,null,null,null,null,null,"[2,3]"
NA,canvas-keyboard-response,114,100404,0.0-6.0-0.18,5019,NA,NA,NA,NA,pre trial waiting period,null,null,NA,NA,catch,l,sw,sh,202,268,203,209,219,219,trueblood,null,null,null,null,null,null,null,null,null,null,null,NA,180,200,260,200,36000,52000,"[1,3]"
NA,canvas-keyboard-response,115,100563,0.0-6.0-1.18,5019,NA,NA,NA,NA,clear_screen,null,null,NA,NA,catch,l,sw,sh,202,268,203,209,219,219,trueblood,null,null,null,null,null,null,null,null,null,null,null,NA,180,200,260,200,36000,52000,"[1,3]"
NA,canvas-keyboard-response,116,101902,0.0-6.0-2.18,5019,NA,NA,NA,NA,rectangles,null,null,NA,NA,catch,l,sw,sh,202,268,203,209,219,219,trueblood,null,null,null,null,null,null,null,null,null,null,null,NA,180,200,260,200,36000,52000,"[1,3]"
NA,canvas-keyboard-response,117,102064,0.0-6.0-3.18,5019,NA,NA,NA,NA,clear_screen,null,null,NA,NA,catch,l,sw,sh,202,268,203,209,219,219,trueblood,null,null,null,null,null,null,null,null,null,null,null,NA,180,200,260,200,36000,52000,"[1,3]"
NA,canvas-keyboard-response,118,105564,0.0-6.0-4.18,5019,NA,NA,NA,NA,make choice,3485,1,NA,NA,catch,l,sw,sh,202,268,203,209,219,219,trueblood,null,null,null,null,null,null,null,null,null,null,null,NA,180,200,260,200,36000,52000,"[1,3]"
NA,canvas-keyboard-response,119,105726,0.0-6.0-5.18,5019,NA,NA,NA,NA,clear_screen,null,null,NA,NA,catch,l,sw,sh,202,268,203,209,219,219,trueblood,null,null,null,null,null,null,null,null,null,null,null,NA,180,200,260,200,36000,52000,"[1,3]"
NA,canvas-keyboard-response,120,105937,0.0-6.0-0.19,5019,NA,NA,NA,NA,pre trial waiting period,null,null,NA,NA,critical,c,t,d,164,240,240,164,232.8713,160.6713,trueblood,0.05,w,240,164,164,240,232.8713,160.6713,39360,39360,37415.7294,dc,null,null,null,null,null,null,"[3,1]"
NA,canvas-keyboard-response,121,106101,0.0-6.0-1.19,5019,NA,NA,NA,NA,clear_screen,null,null,NA,NA,critical,c,t,d,164,240,240,164,232.8713,160.6713,trueblood,0.05,w,240,164,164,240,232.8713,160.6713,39360,39360,37415.7294,dc,null,null,null,null,null,null,"[3,1]"
NA,canvas-keyboard-response,122,107448,0.0-6.0-2.19,5019,NA,NA,NA,NA,rectangles,null,null,NA,NA,critical,c,t,d,164,240,240,164,232.8713,160.6713,trueblood,0.05,w,240,164,164,240,232.8713,160.6713,39360,39360,37415.7294,dc,null,null,null,null,null,null,"[3,1]"
NA,canvas-keyboard-response,123,107618,0.0-6.0-3.19,5019,NA,NA,NA,NA,clear_screen,null,null,NA,NA,critical,c,t,d,164,240,240,164,232.8713,160.6713,trueblood,0.05,w,240,164,164,240,232.8713,160.6713,39360,39360,37415.7294,dc,null,null,null,null,null,null,"[3,1]"
NA,canvas-keyboard-response,124,112076,0.0-6.0-4.19,5019,NA,NA,NA,NA,make choice,4439,1,NA,NA,critical,c,t,d,164,240,240,164,232.8713,160.6713,trueblood,0.05,w,240,164,164,240,232.8713,160.6713,39360,39360,37415.7294,dc,null,null,null,null,null,null,"[3,1]"
NA,canvas-keyboard-response,125,112243,0.0-6.0-5.19,5019,NA,NA,NA,NA,clear_screen,null,null,NA,NA,critical,c,t,d,164,240,240,164,232.8713,160.6713,trueblood,0.05,w,240,164,164,240,232.8713,160.6713,39360,39360,37415.7294,dc,null,null,null,null,null,null,"[3,1]"
NA,canvas-keyboard-response,126,112461,0.0-6.0-0.20,5019,NA,NA,NA,NA,pre trial waiting period,null,null,NA,NA,catch,l,sh,sw,207,295,166,157,173,182,trueblood,null,null,null,null,null,null,null,null,null,null,null,NA,180,200,260,200,36000,52000,"[1,2]"
NA,canvas-keyboard-response,127,112617,0.0-6.0-1.20,5019,NA,NA,NA,NA,clear_screen,null,null,NA,NA,catch,l,sh,sw,207,295,166,157,173,182,trueblood,null,null,null,null,null,null,null,null,null,null,null,NA,180,200,260,200,36000,52000,"[1,2]"
NA,canvas-keyboard-response,128,113965,0.0-6.0-2.20,5019,NA,NA,NA,NA,rectangles,null,null,NA,NA,catch,l,sh,sw,207,295,166,157,173,182,trueblood,null,null,null,null,null,null,null,null,null,null,null,NA,180,200,260,200,36000,52000,"[1,2]"
NA,canvas-keyboard-response,129,114136,0.0-6.0-3.20,5019,NA,NA,NA,NA,clear_screen,null,null,NA,NA,catch,l,sh,sw,207,295,166,157,173,182,trueblood,null,null,null,null,null,null,null,null,null,null,null,NA,180,200,260,200,36000,52000,"[1,2]"
NA,canvas-keyboard-response,130,115444,0.0-6.0-4.20,5019,NA,NA,NA,NA,make choice,1288,1,NA,NA,catch,l,sh,sw,207,295,166,157,173,182,trueblood,null,null,null,null,null,null,null,null,null,null,null,NA,180,200,260,200,36000,52000,"[1,2]"
NA,canvas-keyboard-response,131,115610,0.0-6.0-5.20,5019,NA,NA,NA,NA,clear_screen,null,null,NA,NA,catch,l,sh,sw,207,295,166,157,173,182,trueblood,null,null,null,null,null,null,null,null,null,null,null,NA,180,200,260,200,36000,52000,"[1,2]"
NA,canvas-keyboard-response,132,115821,0.0-6.0-0.21,5019,NA,NA,NA,NA,pre trial waiting period,null,null,NA,NA,critical,c,d,t,164,240,240,164,240,164,trueblood,0,w,240,164,164,240,240,164,39360,39360,39360,dc,null,null,null,null,null,null,"[2,1]"
NA,canvas-keyboard-response,133,115976,0.0-6.0-1.21,5019,NA,NA,NA,NA,clear_screen,null,null,NA,NA,critical,c,d,t,164,240,240,164,240,164,trueblood,0,w,240,164,164,240,240,164,39360,39360,39360,dc,null,null,null,null,null,null,"[2,1]"
NA,canvas-keyboard-response,134,117318,0.0-6.0-2.21,5019,NA,NA,NA,NA,rectangles,null,null,NA,NA,critical,c,d,t,164,240,240,164,240,164,trueblood,0,w,240,164,164,240,240,164,39360,39360,39360,dc,null,null,null,null,null,null,"[2,1]"
NA,canvas-keyboard-response,135,117483,0.0-6.0-3.21,5019,NA,NA,NA,NA,clear_screen,null,null,NA,NA,critical,c,d,t,164,240,240,164,240,164,trueblood,0,w,240,164,164,240,240,164,39360,39360,39360,dc,null,null,null,null,null,null,"[2,1]"
NA,canvas-keyboard-response,136,119628,0.0-6.0-4.21,5019,NA,NA,NA,NA,make choice,2128,2,NA,NA,critical,c,d,t,164,240,240,164,240,164,trueblood,0,w,240,164,164,240,240,164,39360,39360,39360,dc,null,null,null,null,null,null,"[2,1]"
NA,canvas-keyboard-response,137,119791,0.0-6.0-5.21,5019,NA,NA,NA,NA,clear_screen,null,null,NA,NA,critical,c,d,t,164,240,240,164,240,164,trueblood,0,w,240,164,164,240,240,164,39360,39360,39360,dc,null,null,null,null,null,null,"[2,1]"
NA,canvas-keyboard-response,138,120001,0.0-6.0-0.22,5019,NA,NA,NA,NA,pre trial waiting period,null,null,NA,NA,critical,t,d,c,164,240,164,240,240,164,spektor,0,h,164,240,240,164,164,240,39360,39360,39360,tc,null,null,null,null,null,null,"[1,3]"
NA,canvas-keyboard-response,139,120159,0.0-6.0-1.22,5019,NA,NA,NA,NA,clear_screen,null,null,NA,NA,critical,t,d,c,164,240,164,240,240,164,spektor,0,h,164,240,240,164,164,240,39360,39360,39360,tc,null,null,null,null,null,null,"[1,3]"
NA,canvas-keyboard-response,140,121500,0.0-6.0-2.22,5019,NA,NA,NA,NA,rectangles,null,null,NA,NA,critical,t,d,c,164,240,164,240,240,164,spektor,0,h,164,240,240,164,164,240,39360,39360,39360,tc,null,null,null,null,null,null,"[1,3]"
NA,canvas-keyboard-response,141,121664,0.0-6.0-3.22,5019,NA,NA,NA,NA,clear_screen,null,null,NA,NA,critical,t,d,c,164,240,164,240,240,164,spektor,0,h,164,240,240,164,164,240,39360,39360,39360,tc,null,null,null,null,null,null,"[1,3]"
NA,canvas-keyboard-response,142,124171,0.0-6.0-4.22,5019,NA,NA,NA,NA,make choice,2491,3,NA,NA,critical,t,d,c,164,240,164,240,240,164,spektor,0,h,164,240,240,164,164,240,39360,39360,39360,tc,null,null,null,null,null,null,"[1,3]"
NA,canvas-keyboard-response,143,124335,0.0-6.0-5.22,5019,NA,NA,NA,NA,clear_screen,null,null,NA,NA,critical,t,d,c,164,240,164,240,240,164,spektor,0,h,164,240,240,164,164,240,39360,39360,39360,tc,null,null,null,null,null,null,"[1,3]"
NA,canvas-keyboard-response,144,124546,0.0-6.0-0.23,5019,NA,NA,NA,NA,pre trial waiting period,null,null,NA,NA,critical,t,c,d,240,164,164,240,240,164,spektor,0,w,240,164,164,240,240,164,39360,39360,39360,td,null,null,null,null,null,null,"[1,3]"
NA,canvas-keyboard-response,145,124705,0.0-6.0-1.23,5019,NA,NA,NA,NA,clear_screen,null,null,NA,NA,critical,t,c,d,240,164,164,240,240,164,spektor,0,w,240,164,164,240,240,164,39360,39360,39360,td,null,null,null,null,null,null,"[1,3]"
NA,canvas-keyboard-response,146,126049,0.0-6.0-2.23,5019,NA,NA,NA,NA,rectangles,null,null,NA,NA,critical,t,c,d,240,164,164,240,240,164,spektor,0,w,240,164,164,240,240,164,39360,39360,39360,td,null,null,null,null,null,null,"[1,3]"
NA,canvas-keyboard-response,147,126217,0.0-6.0-3.23,5019,NA,NA,NA,NA,clear_screen,null,null,NA,NA,critical,t,c,d,240,164,164,240,240,164,spektor,0,w,240,164,164,240,240,164,39360,39360,39360,td,null,null,null,null,null,null,"[1,3]"
NA,canvas-keyboard-response,148,127220,0.0-6.0-4.23,5019,NA,NA,NA,NA,make choice,988,1,NA,NA,critical,t,c,d,240,164,164,240,240,164,spektor,0,w,240,164,164,240,240,164,39360,39360,39360,td,null,null,null,null,null,null,"[1,3]"
NA,canvas-keyboard-response,149,127385,0.0-6.0-5.23,5019,NA,NA,NA,NA,clear_screen,null,null,NA,NA,critical,t,c,d,240,164,164,240,240,164,spektor,0,w,240,164,164,240,240,164,39360,39360,39360,td,null,null,null,null,null,null,"[1,3]"
NA,canvas-keyboard-response,150,127600,0.0-6.0-0.24,5019,NA,NA,NA,NA,pre trial waiting period,null,null,NA,NA,critical,d,c,t,162.6685,237.1485,240,164,164,240,trueblood,0.02,h,164,240,240,164,162.6685,237.1485,39360,39360,38576.5967,td,null,null,null,null,null,null,"[3,1]"
NA,canvas-keyboard-response,151,127757,0.0-6.0-1.24,5019,NA,NA,NA,NA,clear_screen,null,null,NA,NA,critical,d,c,t,162.6685,237.1485,240,164,164,240,trueblood,0.02,h,164,240,240,164,162.6685,237.1485,39360,39360,38576.5967,td,null,null,null,null,null,null,"[3,1]"
NA,canvas-keyboard-response,152,129101,0.0-6.0-2.24,5019,NA,NA,NA,NA,rectangles,null,null,NA,NA,critical,d,c,t,162.6685,237.1485,240,164,164,240,trueblood,0.02,h,164,240,240,164,162.6685,237.1485,39360,39360,38576.5967,td,null,null,null,null,null,null,"[3,1]"
NA,canvas-keyboard-response,153,129264,0.0-6.0-3.24,5019,NA,NA,NA,NA,clear_screen,null,null,NA,NA,critical,d,c,t,162.6685,237.1485,240,164,164,240,trueblood,0.02,h,164,240,240,164,162.6685,237.1485,39360,39360,38576.5967,td,null,null,null,null,null,null,"[3,1]"
NA,canvas-keyboard-response,154,130979,0.0-6.0-4.24,5019,NA,NA,NA,NA,make choice,1700,1,NA,NA,critical,d,c,t,162.6685,237.1485,240,164,164,240,trueblood,0.02,h,164,240,240,164,162.6685,237.1485,39360,39360,38576.5967,td,null,null,null,null,null,null,"[3,1]"
NA,canvas-keyboard-response,155,131144,0.0-6.0-5.24,5019,NA,NA,NA,NA,clear_screen,null,null,NA,NA,critical,d,c,t,162.6685,237.1485,240,164,164,240,trueblood,0.02,h,164,240,240,164,162.6685,237.1485,39360,39360,38576.5967,td,null,null,null,null,null,null,"[3,1]"
NA,canvas-keyboard-response,156,131354,0.0-6.0-0.25,5019,NA,NA,NA,NA,pre trial waiting period,null,null,NA,NA,critical,t,d,c,164,240,154.6796,220.0396,240,164,spektor,0.14,h,164,240,240,164,154.6796,220.0396,39360,39360,34035.6388,dc,null,null,null,null,null,null,"[2,3]"
NA,canvas-keyboard-response,157,131514,0.0-6.0-1.25,5019,NA,NA,NA,NA,clear_screen,null,null,NA,NA,critical,t,d,c,164,240,154.6796,220.0396,240,164,spektor,0.14,h,164,240,240,164,154.6796,220.0396,39360,39360,34035.6388,dc,null,null,null,null,null,null,"[2,3]"
NA,canvas-keyboard-response,158,132860,0.0-6.0-2.25,5019,NA,NA,NA,NA,rectangles,null,null,NA,NA,critical,t,d,c,164,240,154.6796,220.0396,240,164,spektor,0.14,h,164,240,240,164,154.6796,220.0396,39360,39360,34035.6388,dc,null,null,null,null,null,null,"[2,3]"
NA,canvas-keyboard-response,159,133028,0.0-6.0-3.25,5019,NA,NA,NA,NA,clear_screen,null,null,NA,NA,critical,t,d,c,164,240,154.6796,220.0396,240,164,spektor,0.14,h,164,240,240,164,154.6796,220.0396,39360,39360,34035.6388,dc,null,null,null,null,null,null,"[2,3]"
NA,canvas-keyboard-response,160,137596,0.0-6.0-4.25,5019,NA,NA,NA,NA,make choice,4551,3,NA,NA,critical,t,d,c,164,240,154.6796,220.0396,240,164,spektor,0.14,h,164,240,240,164,154.6796,220.0396,39360,39360,34035.6388,dc,null,null,null,null,null,null,"[2,3]"
NA,canvas-keyboard-response,161,137762,0.0-6.0-5.25,5019,NA,NA,NA,NA,clear_screen,null,null,NA,NA,critical,t,d,c,164,240,154.6796,220.0396,240,164,spektor,0.14,h,164,240,240,164,154.6796,220.0396,39360,39360,34035.6388,dc,null,null,null,null,null,null,"[2,3]"
NA,canvas-keyboard-response,162,137976,0.0-6.0-0.26,5019,NA,NA,NA,NA,pre trial waiting period,null,null,NA,NA,catch,sh,l,sw,182,218,199,299,196,202,trueblood,null,null,null,null,null,null,null,null,null,null,null,NA,180,200,260,200,36000,52000,"[1,2]"
NA,canvas-keyboard-response,163,138138,0.0-6.0-1.26,5019,NA,NA,NA,NA,clear_screen,null,null,NA,NA,catch,sh,l,sw,182,218,199,299,196,202,trueblood,null,null,null,null,null,null,null,null,null,null,null,NA,180,200,260,200,36000,52000,"[1,2]"
NA,canvas-keyboard-response,164,139481,0.0-6.0-2.26,5019,NA,NA,NA,NA,rectangles,null,null,NA,NA,catch,sh,l,sw,182,218,199,299,196,202,trueblood,null,null,null,null,null,null,null,null,null,null,null,NA,180,200,260,200,36000,52000,"[1,2]"
NA,canvas-keyboard-response,165,139649,0.0-6.0-3.26,5019,NA,NA,NA,NA,clear_screen,null,null,NA,NA,catch,sh,l,sw,182,218,199,299,196,202,trueblood,null,null,null,null,null,null,null,null,null,null,null,NA,180,200,260,200,36000,52000,"[1,2]"
NA,canvas-keyboard-response,166,140851,0.0-6.0-4.26,5019,NA,NA,NA,NA,make choice,1186,2,NA,NA,catch,sh,l,sw,182,218,199,299,196,202,trueblood,null,null,null,null,null,null,null,null,null,null,null,NA,180,200,260,200,36000,52000,"[1,2]"
NA,canvas-keyboard-response,167,141024,0.0-6.0-5.26,5019,NA,NA,NA,NA,clear_screen,null,null,NA,NA,catch,sh,l,sw,182,218,199,299,196,202,trueblood,null,null,null,null,null,null,null,null,null,null,null,NA,180,200,260,200,36000,52000,"[1,2]"
NA,canvas-keyboard-response,168,141247,0.0-6.0-0.27,5019,NA,NA,NA,NA,pre trial waiting period,null,null,NA,NA,critical,c,d,t,240,164,158.0083,227.1683,164,240,trueblood,0.09,h,164,240,240,164,158.0083,227.1683,39360,39360,35894.4834,tc,null,null,null,null,null,null,"[3,1]"
NA,canvas-keyboard-response,169,141408,0.0-6.0-1.27,5019,NA,NA,NA,NA,clear_screen,null,null,NA,NA,critical,c,d,t,240,164,158.0083,227.1683,164,240,trueblood,0.09,h,164,240,240,164,158.0083,227.1683,39360,39360,35894.4834,tc,null,null,null,null,null,null,"[3,1]"
NA,canvas-keyboard-response,170,142751,0.0-6.0-2.27,5019,NA,NA,NA,NA,rectangles,null,null,NA,NA,critical,c,d,t,240,164,158.0083,227.1683,164,240,trueblood,0.09,h,164,240,240,164,158.0083,227.1683,39360,39360,35894.4834,tc,null,null,null,null,null,null,"[3,1]"
NA,canvas-keyboard-response,171,142917,0.0-6.0-3.27,5019,NA,NA,NA,NA,clear_screen,null,null,NA,NA,critical,c,d,t,240,164,158.0083,227.1683,164,240,trueblood,0.09,h,164,240,240,164,158.0083,227.1683,39360,39360,35894.4834,tc,null,null,null,null,null,null,"[3,1]"
NA,canvas-keyboard-response,172,143780,0.0-6.0-4.27,5019,NA,NA,NA,NA,make choice,845,1,NA,NA,critical,c,d,t,240,164,158.0083,227.1683,164,240,trueblood,0.09,h,164,240,240,164,158.0083,227.1683,39360,39360,35894.4834,tc,null,null,null,null,null,null,"[3,1]"
NA,canvas-keyboard-response,173,143947,0.0-6.0-5.27,5019,NA,NA,NA,NA,clear_screen,null,null,NA,NA,critical,c,d,t,240,164,158.0083,227.1683,164,240,trueblood,0.09,h,164,240,240,164,158.0083,227.1683,39360,39360,35894.4834,tc,null,null,null,null,null,null,"[3,1]"
NA,canvas-keyboard-response,174,144163,0.0-6.0-0.28,5019,NA,NA,NA,NA,pre trial waiting period,null,null,NA,NA,critical,t,d,c,240,164,220.0396,154.6796,164,240,trueblood,0.14,w,240,164,164,240,220.0396,154.6796,39360,39360,34035.6388,dc,null,null,null,null,null,null,"[2,3]"
NA,canvas-keyboard-response,175,144319,0.0-6.0-1.28,5019,NA,NA,NA,NA,clear_screen,null,null,NA,NA,critical,t,d,c,240,164,220.0396,154.6796,164,240,trueblood,0.14,w,240,164,164,240,220.0396,154.6796,39360,39360,34035.6388,dc,null,null,null,null,null,null,"[2,3]"
NA,canvas-keyboard-response,176,145663,0.0-6.0-2.28,5019,NA,NA,NA,NA,rectangles,null,null,NA,NA,critical,t,d,c,240,164,220.0396,154.6796,164,240,trueblood,0.14,w,240,164,164,240,220.0396,154.6796,39360,39360,34035.6388,dc,null,null,null,null,null,null,"[2,3]"
NA,canvas-keyboard-response,177,145830,0.0-6.0-3.28,5019,NA,NA,NA,NA,clear_screen,null,null,NA,NA,critical,t,d,c,240,164,220.0396,154.6796,164,240,trueblood,0.14,w,240,164,164,240,220.0396,154.6796,39360,39360,34035.6388,dc,null,null,null,null,null,null,"[2,3]"
NA,canvas-keyboard-response,178,147476,0.0-6.0-4.28,5019,NA,NA,NA,NA,make choice,1628,3,NA,NA,critical,t,d,c,240,164,220.0396,154.6796,164,240,trueblood,0.14,w,240,164,164,240,220.0396,154.6796,39360,39360,34035.6388,dc,null,null,null,null,null,null,"[2,3]"
NA,canvas-keyboard-response,179,147643,0.0-6.0-5.28,5019,NA,NA,NA,NA,clear_screen,null,null,NA,NA,critical,t,d,c,240,164,220.0396,154.6796,164,240,trueblood,0.14,w,240,164,164,240,220.0396,154.6796,39360,39360,34035.6388,dc,null,null,null,null,null,null,"[2,3]"
NA,canvas-keyboard-response,180,147856,0.0-6.0-0.29,5019,NA,NA,NA,NA,pre trial waiting period,null,null,NA,NA,critical,t,d,c,240,164,232.8713,160.6713,164,240,trueblood,0.05,w,240,164,164,240,232.8713,160.6713,39360,39360,37415.7294,td,null,null,null,null,null,null,"[1,2]"
NA,canvas-keyboard-response,181,148010,0.0-6.0-1.29,5019,NA,NA,NA,NA,clear_screen,null,null,NA,NA,critical,t,d,c,240,164,232.8713,160.6713,164,240,trueblood,0.05,w,240,164,164,240,232.8713,160.6713,39360,39360,37415.7294,td,null,null,null,null,null,null,"[1,2]"
NA,canvas-keyboard-response,182,149352,0.0-6.0-2.29,5019,NA,NA,NA,NA,rectangles,null,null,NA,NA,critical,t,d,c,240,164,232.8713,160.6713,164,240,trueblood,0.05,w,240,164,164,240,232.8713,160.6713,39360,39360,37415.7294,td,null,null,null,null,null,null,"[1,2]"
NA,canvas-keyboard-response,183,149519,0.0-6.0-3.29,5019,NA,NA,NA,NA,clear_screen,null,null,NA,NA,critical,t,d,c,240,164,232.8713,160.6713,164,240,trueblood,0.05,w,240,164,164,240,232.8713,160.6713,39360,39360,37415.7294,td,null,null,null,null,null,null,"[1,2]"
NA,canvas-keyboard-response,184,150405,0.0-6.0-4.29,5019,NA,NA,NA,NA,make choice,867,1,NA,NA,critical,t,d,c,240,164,232.8713,160.6713,164,240,trueblood,0.05,w,240,164,164,240,232.8713,160.6713,39360,39360,37415.7294,td,null,null,null,null,null,null,"[1,2]"
NA,canvas-keyboard-response,185,150571,0.0-6.0-5.29,5019,NA,NA,NA,NA,clear_screen,null,null,NA,NA,critical,t,d,c,240,164,232.8713,160.6713,164,240,trueblood,0.05,w,240,164,164,240,232.8713,160.6713,39360,39360,37415.7294,td,null,null,null,null,null,null,"[1,2]"
NA,canvas-keyboard-response,186,150788,0.0-6.0-0.30,5019,NA,NA,NA,NA,pre trial waiting period,null,null,NA,NA,catch,sh,l,sw,184,180,237,174,165,209,trueblood,null,null,null,null,null,null,null,null,null,null,null,NA,180,200,260,200,36000,52000,"[1,2]"
NA,canvas-keyboard-response,187,150950,0.0-6.0-1.30,5019,NA,NA,NA,NA,clear_screen,null,null,NA,NA,catch,sh,l,sw,184,180,237,174,165,209,trueblood,null,null,null,null,null,null,null,null,null,null,null,NA,180,200,260,200,36000,52000,"[1,2]"
NA,canvas-keyboard-response,188,152294,0.0-6.0-2.30,5019,NA,NA,NA,NA,rectangles,null,null,NA,NA,catch,sh,l,sw,184,180,237,174,165,209,trueblood,null,null,null,null,null,null,null,null,null,null,null,NA,180,200,260,200,36000,52000,"[1,2]"
NA,canvas-keyboard-response,189,152460,0.0-6.0-3.30,5019,NA,NA,NA,NA,clear_screen,null,null,NA,NA,catch,sh,l,sw,184,180,237,174,165,209,trueblood,null,null,null,null,null,null,null,null,null,null,null,NA,180,200,260,200,36000,52000,"[1,2]"
NA,canvas-keyboard-response,190,153211,0.0-6.0-4.30,5019,NA,NA,NA,NA,make choice,730,2,NA,NA,catch,sh,l,sw,184,180,237,174,165,209,trueblood,null,null,null,null,null,null,null,null,null,null,null,NA,180,200,260,200,36000,52000,"[1,2]"
NA,canvas-keyboard-response,191,153374,0.0-6.0-5.30,5019,NA,NA,NA,NA,clear_screen,null,null,NA,NA,catch,sh,l,sw,184,180,237,174,165,209,trueblood,null,null,null,null,null,null,null,null,null,null,null,NA,180,200,260,200,36000,52000,"[1,2]"
NA,canvas-keyboard-response,192,153587,0.0-6.0-0.31,5019,NA,NA,NA,NA,pre trial waiting period,null,null,NA,NA,catch,sh,l,sw,231,199,226,220,211,224,trueblood,null,null,null,null,null,null,null,null,null,null,null,NA,180,200,260,200,36000,52000,"[1,2]"
NA,canvas-keyboard-response,193,153749,0.0-6.0-1.31,5019,NA,NA,NA,NA,clear_screen,null,null,NA,NA,catch,sh,l,sw,231,199,226,220,211,224,trueblood,null,null,null,null,null,null,null,null,null,null,null,NA,180,200,260,200,36000,52000,"[1,2]"
NA,canvas-keyboard-response,194,155092,0.0-6.0-2.31,5019,NA,NA,NA,NA,rectangles,null,null,NA,NA,catch,sh,l,sw,231,199,226,220,211,224,trueblood,null,null,null,null,null,null,null,null,null,null,null,NA,180,200,260,200,36000,52000,"[1,2]"
NA,canvas-keyboard-response,195,155262,0.0-6.0-3.31,5019,NA,NA,NA,NA,clear_screen,null,null,NA,NA,catch,sh,l,sw,231,199,226,220,211,224,trueblood,null,null,null,null,null,null,null,null,null,null,null,NA,180,200,260,200,36000,52000,"[1,2]"
NA,canvas-keyboard-response,196,155939,0.0-6.0-4.31,5019,NA,NA,NA,NA,make choice,659,2,NA,NA,catch,sh,l,sw,231,199,226,220,211,224,trueblood,null,null,null,null,null,null,null,null,null,null,null,NA,180,200,260,200,36000,52000,"[1,2]"
NA,canvas-keyboard-response,197,156105,0.0-6.0-5.31,5019,NA,NA,NA,NA,clear_screen,null,null,NA,NA,catch,sh,l,sw,231,199,226,220,211,224,trueblood,null,null,null,null,null,null,null,null,null,null,null,NA,180,200,260,200,36000,52000,"[1,2]"
NA,canvas-keyboard-response,198,156315,0.0-6.0-0.32,5019,NA,NA,NA,NA,pre trial waiting period,null,null,NA,NA,critical,t,d,c,164,240,162.6685,237.1485,240,164,spektor,0.02,h,164,240,240,164,162.6685,237.1485,39360,39360,38576.5967,dc,null,null,null,null,null,null,"[2,3]"
NA,canvas-keyboard-response,199,156478,0.0-6.0-1.32,5019,NA,NA,NA,NA,clear_screen,null,null,NA,NA,critical,t,d,c,164,240,162.6685,237.1485,240,164,spektor,0.02,h,164,240,240,164,162.6685,237.1485,39360,39360,38576.5967,dc,null,null,null,null,null,null,"[2,3]"
NA,canvas-keyboard-response,200,157820,0.0-6.0-2.32,5019,NA,NA,NA,NA,rectangles,null,null,NA,NA,critical,t,d,c,164,240,162.6685,237.1485,240,164,spektor,0.02,h,164,240,240,164,162.6685,237.1485,39360,39360,38576.5967,dc,null,null,null,null,null,null,"[2,3]"
NA,canvas-keyboard-response,201,157987,0.0-6.0-3.32,5019,NA,NA,NA,NA,clear_screen,null,null,NA,NA,critical,t,d,c,164,240,162.6685,237.1485,240,164,spektor,0.02,h,164,240,240,164,162.6685,237.1485,39360,39360,38576.5967,dc,null,null,null,null,null,null,"[2,3]"
NA,canvas-keyboard-response,202,159827,0.0-6.0-4.32,5019,NA,NA,NA,NA,make choice,1822,3,NA,NA,critical,t,d,c,164,240,162.6685,237.1485,240,164,spektor,0.02,h,164,240,240,164,162.6685,237.1485,39360,39360,38576.5967,dc,null,null,null,null,null,null,"[2,3]"
NA,canvas-keyboard-response,203,159993,0.0-6.0-5.32,5019,NA,NA,NA,NA,clear_screen,null,null,NA,NA,critical,t,d,c,164,240,162.6685,237.1485,240,164,spektor,0.02,h,164,240,240,164,162.6685,237.1485,39360,39360,38576.5967,dc,null,null,null,null,null,null,"[2,3]"
NA,canvas-keyboard-response,204,160206,0.0-6.0-0.33,5019,NA,NA,NA,NA,pre trial waiting period,null,null,NA,NA,catch,l,sw,sh,269,161,212,179,222,201,spektor,null,null,null,null,null,null,null,null,null,null,null,NA,180,200,260,200,36000,52000,"[1,2]"
NA,canvas-keyboard-response,205,160360,0.0-6.0-1.33,5019,NA,NA,NA,NA,clear_screen,null,null,NA,NA,catch,l,sw,sh,269,161,212,179,222,201,spektor,null,null,null,null,null,null,null,null,null,null,null,NA,180,200,260,200,36000,52000,"[1,2]"
NA,canvas-keyboard-response,206,161707,0.0-6.0-2.33,5019,NA,NA,NA,NA,rectangles,null,null,NA,NA,catch,l,sw,sh,269,161,212,179,222,201,spektor,null,null,null,null,null,null,null,null,null,null,null,NA,180,200,260,200,36000,52000,"[1,2]"
NA,canvas-keyboard-response,207,161877,0.0-6.0-3.33,5019,NA,NA,NA,NA,clear_screen,null,null,NA,NA,catch,l,sw,sh,269,161,212,179,222,201,spektor,null,null,null,null,null,null,null,null,null,null,null,NA,180,200,260,200,36000,52000,"[1,2]"
NA,canvas-keyboard-response,208,163283,0.0-6.0-4.33,5019,NA,NA,NA,NA,make choice,1391,1,NA,NA,catch,l,sw,sh,269,161,212,179,222,201,spektor,null,null,null,null,null,null,null,null,null,null,null,NA,180,200,260,200,36000,52000,"[1,2]"
NA,canvas-keyboard-response,209,163449,0.0-6.0-5.33,5019,NA,NA,NA,NA,clear_screen,null,null,NA,NA,catch,l,sw,sh,269,161,212,179,222,201,spektor,null,null,null,null,null,null,null,null,null,null,null,NA,180,200,260,200,36000,52000,"[1,2]"
NA,canvas-keyboard-response,210,163662,0.0-6.0-0.34,5019,NA,NA,NA,NA,pre trial waiting period,null,null,NA,NA,critical,c,d,t,240,164,162.6685,237.1485,164,240,spektor,0.02,h,164,240,240,164,162.6685,237.1485,39360,39360,38576.5967,td,null,null,null,null,null,null,"[3,2]"
NA,canvas-keyboard-response,211,163816,0.0-6.0-1.34,5019,NA,NA,NA,NA,clear_screen,null,null,NA,NA,critical,c,d,t,240,164,162.6685,237.1485,164,240,spektor,0.02,h,164,240,240,164,162.6685,237.1485,39360,39360,38576.5967,td,null,null,null,null,null,null,"[3,2]"
NA,canvas-keyboard-response,212,165159,0.0-6.0-2.34,5019,NA,NA,NA,NA,rectangles,null,null,NA,NA,critical,c,d,t,240,164,162.6685,237.1485,164,240,spektor,0.02,h,164,240,240,164,162.6685,237.1485,39360,39360,38576.5967,td,null,null,null,null,null,null,"[3,2]"
NA,canvas-keyboard-response,213,165326,0.0-6.0-3.34,5019,NA,NA,NA,NA,clear_screen,null,null,NA,NA,critical,c,d,t,240,164,162.6685,237.1485,164,240,spektor,0.02,h,164,240,240,164,162.6685,237.1485,39360,39360,38576.5967,td,null,null,null,null,null,null,"[3,2]"
NA,canvas-keyboard-response,214,166364,0.0-6.0-4.34,5019,NA,NA,NA,NA,make choice,1019,2,NA,NA,critical,c,d,t,240,164,162.6685,237.1485,164,240,spektor,0.02,h,164,240,240,164,162.6685,237.1485,39360,39360,38576.5967,td,null,null,null,null,null,null,"[3,2]"
NA,canvas-keyboard-response,215,166532,0.0-6.0-5.34,5019,NA,NA,NA,NA,clear_screen,null,null,NA,NA,critical,c,d,t,240,164,162.6685,237.1485,164,240,spektor,0.02,h,164,240,240,164,162.6685,237.1485,39360,39360,38576.5967,td,null,null,null,null,null,null,"[3,2]"
NA,canvas-keyboard-response,216,166746,0.0-6.0-0.35,5019,NA,NA,NA,NA,pre trial waiting period,null,null,NA,NA,catch,sh,l,sw,218,148,261,211,169,187,trueblood,null,null,null,null,null,null,null,null,null,null,null,NA,180,200,260,200,36000,52000,"[2,3]"
NA,canvas-keyboard-response,217,166905,0.0-6.0-1.35,5019,NA,NA,NA,NA,clear_screen,null,null,NA,NA,catch,sh,l,sw,218,148,261,211,169,187,trueblood,null,null,null,null,null,null,null,null,null,null,null,NA,180,200,260,200,36000,52000,"[2,3]"
NA,canvas-keyboard-response,218,168248,0.0-6.0-2.35,5019,NA,NA,NA,NA,rectangles,null,null,NA,NA,catch,sh,l,sw,218,148,261,211,169,187,trueblood,null,null,null,null,null,null,null,null,null,null,null,NA,180,200,260,200,36000,52000,"[2,3]"
NA,canvas-keyboard-response,219,168414,0.0-6.0-3.35,5019,NA,NA,NA,NA,clear_screen,null,null,NA,NA,catch,sh,l,sw,218,148,261,211,169,187,trueblood,null,null,null,null,null,null,null,null,null,null,null,NA,180,200,260,200,36000,52000,"[2,3]"
NA,canvas-keyboard-response,220,169379,0.0-6.0-4.35,5019,NA,NA,NA,NA,make choice,948,2,NA,NA,catch,sh,l,sw,218,148,261,211,169,187,trueblood,null,null,null,null,null,null,null,null,null,null,null,NA,180,200,260,200,36000,52000,"[2,3]"
NA,canvas-keyboard-response,221,169548,0.0-6.0-5.35,5019,NA,NA,NA,NA,clear_screen,null,null,NA,NA,catch,sh,l,sw,218,148,261,211,169,187,trueblood,null,null,null,null,null,null,null,null,null,null,null,NA,180,200,260,200,36000,52000,"[2,3]"
NA,canvas-keyboard-response,222,169759,0.0-6.0-0.36,5019,NA,NA,NA,NA,pre trial waiting period,null,null,NA,NA,critical,c,d,t,164,240,220.0396,154.6796,240,164,spektor,0.14,w,240,164,164,240,220.0396,154.6796,39360,39360,34035.6388,dc,null,null,null,null,null,null,"[2,1]"
NA,canvas-keyboard-response,223,169913,0.0-6.0-1.36,5019,NA,NA,NA,NA,clear_screen,null,null,NA,NA,critical,c,d,t,164,240,220.0396,154.6796,240,164,spektor,0.14,w,240,164,164,240,220.0396,154.6796,39360,39360,34035.6388,dc,null,null,null,null,null,null,"[2,1]"
NA,canvas-keyboard-response,224,171256,0.0-6.0-2.36,5019,NA,NA,NA,NA,rectangles,null,null,NA,NA,critical,c,d,t,164,240,220.0396,154.6796,240,164,spektor,0.14,w,240,164,164,240,220.0396,154.6796,39360,39360,34035.6388,dc,null,null,null,null,null,null,"[2,1]"
NA,canvas-keyboard-response,225,171427,0.0-6.0-3.36,5019,NA,NA,NA,NA,clear_screen,null,null,NA,NA,critical,c,d,t,164,240,220.0396,154.6796,240,164,spektor,0.14,w,240,164,164,240,220.0396,154.6796,39360,39360,34035.6388,dc,null,null,null,null,null,null,"[2,1]"
NA,canvas-keyboard-response,226,172173,0.0-6.0-4.36,5019,NA,NA,NA,NA,make choice,732,1,NA,NA,critical,c,d,t,164,240,220.0396,154.6796,240,164,spektor,0.14,w,240,164,164,240,220.0396,154.6796,39360,39360,34035.6388,dc,null,null,null,null,null,null,"[2,1]"
NA,canvas-keyboard-response,227,172350,0.0-6.0-5.36,5019,NA,NA,NA,NA,clear_screen,null,null,NA,NA,critical,c,d,t,164,240,220.0396,154.6796,240,164,spektor,0.14,w,240,164,164,240,220.0396,154.6796,39360,39360,34035.6388,dc,null,null,null,null,null,null,"[2,1]"
NA,canvas-keyboard-response,228,172575,0.0-6.0-0.37,5019,NA,NA,NA,NA,pre trial waiting period,null,null,NA,NA,catch,l,sh,sw,167,228,175,143,148,201,trueblood,null,null,null,null,null,null,null,null,null,null,null,NA,180,200,260,200,36000,52000,"[1,2]"
NA,canvas-keyboard-response,229,172732,0.0-6.0-1.37,5019,NA,NA,NA,NA,clear_screen,null,null,NA,NA,catch,l,sh,sw,167,228,175,143,148,201,trueblood,null,null,null,null,null,null,null,null,null,null,null,NA,180,200,260,200,36000,52000,"[1,2]"
NA,canvas-keyboard-response,230,174080,0.0-6.0-2.37,5019,NA,NA,NA,NA,rectangles,null,null,NA,NA,catch,l,sh,sw,167,228,175,143,148,201,trueblood,null,null,null,null,null,null,null,null,null,null,null,NA,180,200,260,200,36000,52000,"[1,2]"
NA,canvas-keyboard-response,231,174249,0.0-6.0-3.37,5019,NA,NA,NA,NA,clear_screen,null,null,NA,NA,catch,l,sh,sw,167,228,175,143,148,201,trueblood,null,null,null,null,null,null,null,null,null,null,null,NA,180,200,260,200,36000,52000,"[1,2]"
NA,canvas-keyboard-response,232,175061,0.0-6.0-4.37,5019,NA,NA,NA,NA,make choice,790,1,NA,NA,catch,l,sh,sw,167,228,175,143,148,201,trueblood,null,null,null,null,null,null,null,null,null,null,null,NA,180,200,260,200,36000,52000,"[1,2]"
NA,canvas-keyboard-response,233,175226,0.0-6.0-5.37,5019,NA,NA,NA,NA,clear_screen,null,null,NA,NA,catch,l,sh,sw,167,228,175,143,148,201,trueblood,null,null,null,null,null,null,null,null,null,null,null,NA,180,200,260,200,36000,52000,"[1,2]"
NA,canvas-keyboard-response,234,175441,0.0-6.0-0.38,5019,NA,NA,NA,NA,pre trial waiting period,null,null,NA,NA,catch,l,sh,sw,190,224,199,215,142,198,spektor,null,null,null,null,null,null,null,null,null,null,null,NA,180,200,260,200,36000,52000,"[1,2]"
NA,canvas-keyboard-response,235,175602,0.0-6.0-1.38,5019,NA,NA,NA,NA,clear_screen,null,null,NA,NA,catch,l,sh,sw,190,224,199,215,142,198,spektor,null,null,null,null,null,null,null,null,null,null,null,NA,180,200,260,200,36000,52000,"[1,2]"
NA,canvas-keyboard-response,236,176948,0.0-6.0-2.38,5019,NA,NA,NA,NA,rectangles,null,null,NA,NA,catch,l,sh,sw,190,224,199,215,142,198,spektor,null,null,null,null,null,null,null,null,null,null,null,NA,180,200,260,200,36000,52000,"[1,2]"
NA,canvas-keyboard-response,237,177119,0.0-6.0-3.38,5019,NA,NA,NA,NA,clear_screen,null,null,NA,NA,catch,l,sh,sw,190,224,199,215,142,198,spektor,null,null,null,null,null,null,null,null,null,null,null,NA,180,200,260,200,36000,52000,"[1,2]"
NA,canvas-keyboard-response,238,177932,0.0-6.0-4.38,5019,NA,NA,NA,NA,make choice,793,1,NA,NA,catch,l,sh,sw,190,224,199,215,142,198,spektor,null,null,null,null,null,null,null,null,null,null,null,NA,180,200,260,200,36000,52000,"[1,2]"
NA,canvas-keyboard-response,239,178101,0.0-6.0-5.38,5019,NA,NA,NA,NA,clear_screen,null,null,NA,NA,catch,l,sh,sw,190,224,199,215,142,198,spektor,null,null,null,null,null,null,null,null,null,null,null,NA,180,200,260,200,36000,52000,"[1,2]"
NA,canvas-keyboard-response,240,178320,0.0-6.0-0.39,5019,NA,NA,NA,NA,pre trial waiting period,null,null,NA,NA,catch,sw,l,sh,180,200,266,226,196,214,spektor,null,null,null,null,null,null,null,null,null,null,null,NA,180,200,260,200,36000,52000,"[2,3]"
NA,canvas-keyboard-response,241,178479,0.0-6.0-1.39,5019,NA,NA,NA,NA,clear_screen,null,null,NA,NA,catch,sw,l,sh,180,200,266,226,196,214,spektor,null,null,null,null,null,null,null,null,null,null,null,NA,180,200,260,200,36000,52000,"[2,3]"
NA,canvas-keyboard-response,242,179823,0.0-6.0-2.39,5019,NA,NA,NA,NA,rectangles,null,null,NA,NA,catch,sw,l,sh,180,200,266,226,196,214,spektor,null,null,null,null,null,null,null,null,null,null,null,NA,180,200,260,200,36000,52000,"[2,3]"
NA,canvas-keyboard-response,243,179992,0.0-6.0-3.39,5019,NA,NA,NA,NA,clear_screen,null,null,NA,NA,catch,sw,l,sh,180,200,266,226,196,214,spektor,null,null,null,null,null,null,null,null,null,null,null,NA,180,200,260,200,36000,52000,"[2,3]"
NA,canvas-keyboard-response,244,180707,0.0-6.0-4.39,5019,NA,NA,NA,NA,make choice,695,2,NA,NA,catch,sw,l,sh,180,200,266,226,196,214,spektor,null,null,null,null,null,null,null,null,null,null,null,NA,180,200,260,200,36000,52000,"[2,3]"
NA,canvas-keyboard-response,245,180874,0.0-6.0-5.39,5019,NA,NA,NA,NA,clear_screen,null,null,NA,NA,catch,sw,l,sh,180,200,266,226,196,214,spektor,null,null,null,null,null,null,null,null,null,null,null,NA,180,200,260,200,36000,52000,"[2,3]"
NA,canvas-keyboard-response,246,181087,0.0-6.0-0.40,5019,NA,NA,NA,NA,pre trial waiting period,null,null,NA,NA,catch,l,sh,sw,229,288,185,202,146,166,trueblood,null,null,null,null,null,null,null,null,null,null,null,NA,180,200,260,200,36000,52000,"[1,2]"
NA,canvas-keyboard-response,247,181242,0.0-6.0-1.40,5019,NA,NA,NA,NA,clear_screen,null,null,NA,NA,catch,l,sh,sw,229,288,185,202,146,166,trueblood,null,null,null,null,null,null,null,null,null,null,null,NA,180,200,260,200,36000,52000,"[1,2]"
NA,canvas-keyboard-response,248,182585,0.0-6.0-2.40,5019,NA,NA,NA,NA,rectangles,null,null,NA,NA,catch,l,sh,sw,229,288,185,202,146,166,trueblood,null,null,null,null,null,null,null,null,null,null,null,NA,180,200,260,200,36000,52000,"[1,2]"
NA,canvas-keyboard-response,249,182755,0.0-6.0-3.40,5019,NA,NA,NA,NA,clear_screen,null,null,NA,NA,catch,l,sh,sw,229,288,185,202,146,166,trueblood,null,null,null,null,null,null,null,null,null,null,null,NA,180,200,260,200,36000,52000,"[1,2]"
NA,canvas-keyboard-response,250,183588,0.0-6.0-4.40,5019,NA,NA,NA,NA,make choice,816,1,NA,NA,catch,l,sh,sw,229,288,185,202,146,166,trueblood,null,null,null,null,null,null,null,null,null,null,null,NA,180,200,260,200,36000,52000,"[1,2]"
NA,canvas-keyboard-response,251,183757,0.0-6.0-5.40,5019,NA,NA,NA,NA,clear_screen,null,null,NA,NA,catch,l,sh,sw,229,288,185,202,146,166,trueblood,null,null,null,null,null,null,null,null,null,null,null,NA,180,200,260,200,36000,52000,"[1,2]"
NA,canvas-keyboard-response,252,183971,0.0-6.0-0.41,5019,NA,NA,NA,NA,pre trial waiting period,null,null,NA,NA,catch,l,sh,sw,225,217,188,140,200,233,trueblood,null,null,null,null,null,null,null,null,null,null,null,NA,180,200,260,200,36000,52000,"[1,3]"
NA,canvas-keyboard-response,253,184126,0.0-6.0-1.41,5019,NA,NA,NA,NA,clear_screen,null,null,NA,NA,catch,l,sh,sw,225,217,188,140,200,233,trueblood,null,null,null,null,null,null,null,null,null,null,null,NA,180,200,260,200,36000,52000,"[1,3]"
NA,canvas-keyboard-response,254,185472,0.0-6.0-2.41,5019,NA,NA,NA,NA,rectangles,null,null,NA,NA,catch,l,sh,sw,225,217,188,140,200,233,trueblood,null,null,null,null,null,null,null,null,null,null,null,NA,180,200,260,200,36000,52000,"[1,3]"
NA,canvas-keyboard-response,255,185641,0.0-6.0-3.41,5019,NA,NA,NA,NA,clear_screen,null,null,NA,NA,catch,l,sh,sw,225,217,188,140,200,233,trueblood,null,null,null,null,null,null,null,null,null,null,null,NA,180,200,260,200,36000,52000,"[1,3]"
NA,canvas-keyboard-response,256,187003,0.0-6.0-4.41,5019,NA,NA,NA,NA,make choice,1342,1,NA,NA,catch,l,sh,sw,225,217,188,140,200,233,trueblood,null,null,null,null,null,null,null,null,null,null,null,NA,180,200,260,200,36000,52000,"[1,3]"
NA,canvas-keyboard-response,257,187170,0.0-6.0-5.41,5019,NA,NA,NA,NA,clear_screen,null,null,NA,NA,catch,l,sh,sw,225,217,188,140,200,233,trueblood,null,null,null,null,null,null,null,null,null,null,null,NA,180,200,260,200,36000,52000,"[1,3]"
NA,canvas-keyboard-response,258,187389,0.0-6.0-0.42,5019,NA,NA,NA,NA,pre trial waiting period,null,null,NA,NA,critical,t,c,d,164,240,240,164,160.6713,232.8713,spektor,0.05,h,164,240,240,164,160.6713,232.8713,39360,39360,37415.7294,dc,null,null,null,null,null,null,"[3,2]"
NA,canvas-keyboard-response,259,187553,0.0-6.0-1.42,5019,NA,NA,NA,NA,clear_screen,null,null,NA,NA,critical,t,c,d,164,240,240,164,160.6713,232.8713,spektor,0.05,h,164,240,240,164,160.6713,232.8713,39360,39360,37415.7294,dc,null,null,null,null,null,null,"[3,2]"
NA,canvas-keyboard-response,260,188895,0.0-6.0-2.42,5019,NA,NA,NA,NA,rectangles,null,null,NA,NA,critical,t,c,d,164,240,240,164,160.6713,232.8713,spektor,0.05,h,164,240,240,164,160.6713,232.8713,39360,39360,37415.7294,dc,null,null,null,null,null,null,"[3,2]"
NA,canvas-keyboard-response,261,189065,0.0-6.0-3.42,5019,NA,NA,NA,NA,clear_screen,null,null,NA,NA,critical,t,c,d,164,240,240,164,160.6713,232.8713,spektor,0.05,h,164,240,240,164,160.6713,232.8713,39360,39360,37415.7294,dc,null,null,null,null,null,null,"[3,2]"
NA,canvas-keyboard-response,262,190476,0.0-6.0-4.42,5019,NA,NA,NA,NA,make choice,1394,3,NA,NA,critical,t,c,d,164,240,240,164,160.6713,232.8713,spektor,0.05,h,164,240,240,164,160.6713,232.8713,39360,39360,37415.7294,dc,null,null,null,null,null,null,"[3,2]"
NA,canvas-keyboard-response,263,190645,0.0-6.0-5.42,5019,NA,NA,NA,NA,clear_screen,null,null,NA,NA,critical,t,c,d,164,240,240,164,160.6713,232.8713,spektor,0.05,h,164,240,240,164,160.6713,232.8713,39360,39360,37415.7294,dc,null,null,null,null,null,null,"[3,2]"
NA,canvas-keyboard-response,264,190860,0.0-6.0-0.43,5019,NA,NA,NA,NA,pre trial waiting period,null,null,NA,NA,catch,sw,l,sh,180,200,220,187,234,213,trueblood,null,null,null,null,null,null,null,null,null,null,null,NA,180,200,260,200,36000,52000,"[2,3]"
NA,canvas-keyboard-response,265,191016,0.0-6.0-1.43,5019,NA,NA,NA,NA,clear_screen,null,null,NA,NA,catch,sw,l,sh,180,200,220,187,234,213,trueblood,null,null,null,null,null,null,null,null,null,null,null,NA,180,200,260,200,36000,52000,"[2,3]"
NA,canvas-keyboard-response,266,192362,0.0-6.0-2.43,5019,NA,NA,NA,NA,rectangles,null,null,NA,NA,catch,sw,l,sh,180,200,220,187,234,213,trueblood,null,null,null,null,null,null,null,null,null,null,null,NA,180,200,260,200,36000,52000,"[2,3]"
NA,canvas-keyboard-response,267,192529,0.0-6.0-3.43,5019,NA,NA,NA,NA,clear_screen,null,null,NA,NA,catch,sw,l,sh,180,200,220,187,234,213,trueblood,null,null,null,null,null,null,null,null,null,null,null,NA,180,200,260,200,36000,52000,"[2,3]"
NA,canvas-keyboard-response,268,193050,0.0-6.0-4.43,5019,NA,NA,NA,NA,make choice,501,3,NA,NA,catch,sw,l,sh,180,200,220,187,234,213,trueblood,null,null,null,null,null,null,null,null,null,null,null,NA,180,200,260,200,36000,52000,"[2,3]"
NA,canvas-keyboard-response,269,193216,0.0-6.0-5.43,5019,NA,NA,NA,NA,clear_screen,null,null,NA,NA,catch,sw,l,sh,180,200,220,187,234,213,trueblood,null,null,null,null,null,null,null,null,null,null,null,NA,180,200,260,200,36000,52000,"[2,3]"
NA,canvas-keyboard-response,270,193434,0.0-6.0-0.44,5019,NA,NA,NA,NA,pre trial waiting period,null,null,NA,NA,critical,d,t,c,232.8713,160.6713,240,164,164,240,trueblood,0.05,w,240,164,164,240,232.8713,160.6713,39360,39360,37415.7294,tc,null,null,null,null,null,null,"[2,3]"
NA,canvas-keyboard-response,271,193588,0.0-6.0-1.44,5019,NA,NA,NA,NA,clear_screen,null,null,NA,NA,critical,d,t,c,232.8713,160.6713,240,164,164,240,trueblood,0.05,w,240,164,164,240,232.8713,160.6713,39360,39360,37415.7294,tc,null,null,null,null,null,null,"[2,3]"
NA,canvas-keyboard-response,272,194933,0.0-6.0-2.44,5019,NA,NA,NA,NA,rectangles,null,null,NA,NA,critical,d,t,c,232.8713,160.6713,240,164,164,240,trueblood,0.05,w,240,164,164,240,232.8713,160.6713,39360,39360,37415.7294,tc,null,null,null,null,null,null,"[2,3]"
NA,canvas-keyboard-response,273,195104,0.0-6.0-3.44,5019,NA,NA,NA,NA,clear_screen,null,null,NA,NA,critical,d,t,c,232.8713,160.6713,240,164,164,240,trueblood,0.05,w,240,164,164,240,232.8713,160.6713,39360,39360,37415.7294,tc,null,null,null,null,null,null,"[2,3]"
NA,canvas-keyboard-response,274,196013,0.0-6.0-4.44,5019,NA,NA,NA,NA,make choice,890,2,NA,NA,critical,d,t,c,232.8713,160.6713,240,164,164,240,trueblood,0.05,w,240,164,164,240,232.8713,160.6713,39360,39360,37415.7294,tc,null,null,null,null,null,null,"[2,3]"
NA,canvas-keyboard-response,275,196183,0.0-6.0-5.44,5019,NA,NA,NA,NA,clear_screen,null,null,NA,NA,critical,d,t,c,232.8713,160.6713,240,164,164,240,trueblood,0.05,w,240,164,164,240,232.8713,160.6713,39360,39360,37415.7294,tc,null,null,null,null,null,null,"[2,3]"
NA,canvas-keyboard-response,276,196400,0.0-6.0-0.45,5019,NA,NA,NA,NA,pre trial waiting period,null,null,NA,NA,critical,d,t,c,227.1683,158.0083,240,164,164,240,trueblood,0.09,w,240,164,164,240,227.1683,158.0083,39360,39360,35894.4834,td,null,null,null,null,null,null,"[2,1]"
NA,canvas-keyboard-response,277,196555,0.0-6.0-1.45,5019,NA,NA,NA,NA,clear_screen,null,null,NA,NA,critical,d,t,c,227.1683,158.0083,240,164,164,240,trueblood,0.09,w,240,164,164,240,227.1683,158.0083,39360,39360,35894.4834,td,null,null,null,null,null,null,"[2,1]"
NA,canvas-keyboard-response,278,197899,0.0-6.0-2.45,5019,NA,NA,NA,NA,rectangles,null,null,NA,NA,critical,d,t,c,227.1683,158.0083,240,164,164,240,trueblood,0.09,w,240,164,164,240,227.1683,158.0083,39360,39360,35894.4834,td,null,null,null,null,null,null,"[2,1]"
NA,canvas-keyboard-response,279,198071,0.0-6.0-3.45,5019,NA,NA,NA,NA,clear_screen,null,null,NA,NA,critical,d,t,c,227.1683,158.0083,240,164,164,240,trueblood,0.09,w,240,164,164,240,227.1683,158.0083,39360,39360,35894.4834,td,null,null,null,null,null,null,"[2,1]"
NA,canvas-keyboard-response,280,199292,0.0-6.0-4.45,5019,NA,NA,NA,NA,make choice,1201,2,NA,NA,critical,d,t,c,227.1683,158.0083,240,164,164,240,trueblood,0.09,w,240,164,164,240,227.1683,158.0083,39360,39360,35894.4834,td,null,null,null,null,null,null,"[2,1]"
NA,canvas-keyboard-response,281,199458,0.0-6.0-5.45,5019,NA,NA,NA,NA,clear_screen,null,null,NA,NA,critical,d,t,c,227.1683,158.0083,240,164,164,240,trueblood,0.09,w,240,164,164,240,227.1683,158.0083,39360,39360,35894.4834,td,null,null,null,null,null,null,"[2,1]"
NA,canvas-keyboard-response,282,199675,0.0-6.0-0.46,5019,NA,NA,NA,NA,pre trial waiting period,null,null,NA,NA,critical,c,t,d,164,240,240,164,220.0396,154.6796,trueblood,0.14,w,240,164,164,240,220.0396,154.6796,39360,39360,34035.6388,tc,null,null,null,null,null,null,"[2,1]"
NA,canvas-keyboard-response,283,199834,0.0-6.0-1.46,5019,NA,NA,NA,NA,clear_screen,null,null,NA,NA,critical,c,t,d,164,240,240,164,220.0396,154.6796,trueblood,0.14,w,240,164,164,240,220.0396,154.6796,39360,39360,34035.6388,tc,null,null,null,null,null,null,"[2,1]"
NA,canvas-keyboard-response,284,201182,0.0-6.0-2.46,5019,NA,NA,NA,NA,rectangles,null,null,NA,NA,critical,c,t,d,164,240,240,164,220.0396,154.6796,trueblood,0.14,w,240,164,164,240,220.0396,154.6796,39360,39360,34035.6388,tc,null,null,null,null,null,null,"[2,1]"
NA,canvas-keyboard-response,285,201352,0.0-6.0-3.46,5019,NA,NA,NA,NA,clear_screen,null,null,NA,NA,critical,c,t,d,164,240,240,164,220.0396,154.6796,trueblood,0.14,w,240,164,164,240,220.0396,154.6796,39360,39360,34035.6388,tc,null,null,null,null,null,null,"[2,1]"
NA,canvas-keyboard-response,286,202100,0.0-6.0-4.46,5019,NA,NA,NA,NA,make choice,731,2,NA,NA,critical,c,t,d,164,240,240,164,220.0396,154.6796,trueblood,0.14,w,240,164,164,240,220.0396,154.6796,39360,39360,34035.6388,tc,null,null,null,null,null,null,"[2,1]"
NA,canvas-keyboard-response,287,202268,0.0-6.0-5.46,5019,NA,NA,NA,NA,clear_screen,null,null,NA,NA,critical,c,t,d,164,240,240,164,220.0396,154.6796,trueblood,0.14,w,240,164,164,240,220.0396,154.6796,39360,39360,34035.6388,tc,null,null,null,null,null,null,"[2,1]"
NA,canvas-keyboard-response,288,202486,0.0-6.0-0.47,5019,NA,NA,NA,NA,pre trial waiting period,null,null,NA,NA,catch,sw,l,sh,180,200,289,192,222,218,spektor,null,null,null,null,null,null,null,null,null,null,null,NA,180,200,260,200,36000,52000,"[2,3]"
NA,canvas-keyboard-response,289,202646,0.0-6.0-1.47,5019,NA,NA,NA,NA,clear_screen,null,null,NA,NA,catch,sw,l,sh,180,200,289,192,222,218,spektor,null,null,null,null,null,null,null,null,null,null,null,NA,180,200,260,200,36000,52000,"[2,3]"
NA,canvas-keyboard-response,290,203996,0.0-6.0-2.47,5019,NA,NA,NA,NA,rectangles,null,null,NA,NA,catch,sw,l,sh,180,200,289,192,222,218,spektor,null,null,null,null,null,null,null,null,null,null,null,NA,180,200,260,200,36000,52000,"[2,3]"
NA,canvas-keyboard-response,291,204166,0.0-6.0-3.47,5019,NA,NA,NA,NA,clear_screen,null,null,NA,NA,catch,sw,l,sh,180,200,289,192,222,218,spektor,null,null,null,null,null,null,null,null,null,null,null,NA,180,200,260,200,36000,52000,"[2,3]"
NA,canvas-keyboard-response,292,204963,0.0-6.0-4.47,5019,NA,NA,NA,NA,make choice,777,2,NA,NA,catch,sw,l,sh,180,200,289,192,222,218,spektor,null,null,null,null,null,null,null,null,null,null,null,NA,180,200,260,200,36000,52000,"[2,3]"
NA,canvas-keyboard-response,293,205133,0.0-6.0-5.47,5019,NA,NA,NA,NA,clear_screen,null,null,NA,NA,catch,sw,l,sh,180,200,289,192,222,218,spektor,null,null,null,null,null,null,null,null,null,null,null,NA,180,200,260,200,36000,52000,"[2,3]"
NA,canvas-keyboard-response,294,205348,0.0-6.0-0.48,5019,NA,NA,NA,NA,pre trial waiting period,null,null,NA,NA,critical,c,t,d,164,240,240,164,220.0396,154.6796,spektor,0.14,w,240,164,164,240,220.0396,154.6796,39360,39360,34035.6388,td,null,null,null,null,null,null,"[2,3]"
NA,canvas-keyboard-response,295,205502,0.0-6.0-1.48,5019,NA,NA,NA,NA,clear_screen,null,null,NA,NA,critical,c,t,d,164,240,240,164,220.0396,154.6796,spektor,0.14,w,240,164,164,240,220.0396,154.6796,39360,39360,34035.6388,td,null,null,null,null,null,null,"[2,3]"
NA,canvas-keyboard-response,296,206850,0.0-6.0-2.48,5019,NA,NA,NA,NA,rectangles,null,null,NA,NA,critical,c,t,d,164,240,240,164,220.0396,154.6796,spektor,0.14,w,240,164,164,240,220.0396,154.6796,39360,39360,34035.6388,td,null,null,null,null,null,null,"[2,3]"
NA,canvas-keyboard-response,297,207027,0.0-6.0-3.48,5019,NA,NA,NA,NA,clear_screen,null,null,NA,NA,critical,c,t,d,164,240,240,164,220.0396,154.6796,spektor,0.14,w,240,164,164,240,220.0396,154.6796,39360,39360,34035.6388,td,null,null,null,null,null,null,"[2,3]"
NA,canvas-keyboard-response,298,209829,0.0-6.0-4.48,5019,NA,NA,NA,NA,make choice,2773,2,NA,NA,critical,c,t,d,164,240,240,164,220.0396,154.6796,spektor,0.14,w,240,164,164,240,220.0396,154.6796,39360,39360,34035.6388,td,null,null,null,null,null,null,"[2,3]"
NA,canvas-keyboard-response,299,209997,0.0-6.0-5.48,5019,NA,NA,NA,NA,clear_screen,null,null,NA,NA,critical,c,t,d,164,240,240,164,220.0396,154.6796,spektor,0.14,w,240,164,164,240,220.0396,154.6796,39360,39360,34035.6388,td,null,null,null,null,null,null,"[2,3]"
NA,canvas-keyboard-response,300,210217,0.0-6.0-0.49,5019,NA,NA,NA,NA,pre trial waiting period,null,null,NA,NA,catch,sw,l,sh,180,200,285,204,224,167,spektor,null,null,null,null,null,null,null,null,null,null,null,NA,180,200,260,200,36000,52000,"[2,3]"
NA,canvas-keyboard-response,301,210376,0.0-6.0-1.49,5019,NA,NA,NA,NA,clear_screen,null,null,NA,NA,catch,sw,l,sh,180,200,285,204,224,167,spektor,null,null,null,null,null,null,null,null,null,null,null,NA,180,200,260,200,36000,52000,"[2,3]"
NA,canvas-keyboard-response,302,211723,0.0-6.0-2.49,5019,NA,NA,NA,NA,rectangles,null,null,NA,NA,catch,sw,l,sh,180,200,285,204,224,167,spektor,null,null,null,null,null,null,null,null,null,null,null,NA,180,200,260,200,36000,52000,"[2,3]"
NA,canvas-keyboard-response,303,211896,0.0-6.0-3.49,5019,NA,NA,NA,NA,clear_screen,null,null,NA,NA,catch,sw,l,sh,180,200,285,204,224,167,spektor,null,null,null,null,null,null,null,null,null,null,null,NA,180,200,260,200,36000,52000,"[2,3]"
NA,canvas-keyboard-response,304,212909,0.0-6.0-4.49,5019,NA,NA,NA,NA,make choice,991,2,NA,NA,catch,sw,l,sh,180,200,285,204,224,167,spektor,null,null,null,null,null,null,null,null,null,null,null,NA,180,200,260,200,36000,52000,"[2,3]"
NA,canvas-keyboard-response,305,213078,0.0-6.0-5.49,5019,NA,NA,NA,NA,clear_screen,null,null,NA,NA,catch,sw,l,sh,180,200,285,204,224,167,spektor,null,null,null,null,null,null,null,null,null,null,null,NA,180,200,260,200,36000,52000,"[2,3]"
NA,canvas-keyboard-response,306,213294,0.0-6.0-0.50,5019,NA,NA,NA,NA,pre trial waiting period,null,null,NA,NA,critical,t,d,c,240,164,240,164,164,240,spektor,0,w,240,164,164,240,240,164,39360,39360,39360,tc,null,null,null,null,null,null,"[1,3]"
NA,canvas-keyboard-response,307,213454,0.0-6.0-1.50,5019,NA,NA,NA,NA,clear_screen,null,null,NA,NA,critical,t,d,c,240,164,240,164,164,240,spektor,0,w,240,164,164,240,240,164,39360,39360,39360,tc,null,null,null,null,null,null,"[1,3]"
NA,canvas-keyboard-response,308,214802,0.0-6.0-2.50,5019,NA,NA,NA,NA,rectangles,null,null,NA,NA,critical,t,d,c,240,164,240,164,164,240,spektor,0,w,240,164,164,240,240,164,39360,39360,39360,tc,null,null,null,null,null,null,"[1,3]"
NA,canvas-keyboard-response,309,214972,0.0-6.0-3.50,5019,NA,NA,NA,NA,clear_screen,null,null,NA,NA,critical,t,d,c,240,164,240,164,164,240,spektor,0,w,240,164,164,240,240,164,39360,39360,39360,tc,null,null,null,null,null,null,"[1,3]"
NA,canvas-keyboard-response,310,215715,0.0-6.0-4.50,5019,NA,NA,NA,NA,make choice,725,3,NA,NA,critical,t,d,c,240,164,240,164,164,240,spektor,0,w,240,164,164,240,240,164,39360,39360,39360,tc,null,null,null,null,null,null,"[1,3]"
NA,canvas-keyboard-response,311,215883,0.0-6.0-5.50,5019,NA,NA,NA,NA,clear_screen,null,null,NA,NA,critical,t,d,c,240,164,240,164,164,240,spektor,0,w,240,164,164,240,240,164,39360,39360,39360,tc,null,null,null,null,null,null,"[1,3]"
NA,canvas-keyboard-response,312,216100,0.0-6.0-0.51,5019,NA,NA,NA,NA,pre trial waiting period,null,null,NA,NA,critical,c,d,t,164,240,220.0396,154.6796,240,164,trueblood,0.14,w,240,164,164,240,220.0396,154.6796,39360,39360,34035.6388,td,null,null,null,null,null,null,"[3,2]"
NA,canvas-keyboard-response,313,216256,0.0-6.0-1.51,5019,NA,NA,NA,NA,clear_screen,null,null,NA,NA,critical,c,d,t,164,240,220.0396,154.6796,240,164,trueblood,0.14,w,240,164,164,240,220.0396,154.6796,39360,39360,34035.6388,td,null,null,null,null,null,null,"[3,2]"
NA,canvas-keyboard-response,314,217604,0.0-6.0-2.51,5019,NA,NA,NA,NA,rectangles,null,null,NA,NA,critical,c,d,t,164,240,220.0396,154.6796,240,164,trueblood,0.14,w,240,164,164,240,220.0396,154.6796,39360,39360,34035.6388,td,null,null,null,null,null,null,"[3,2]"
NA,canvas-keyboard-response,315,217772,0.0-6.0-3.51,5019,NA,NA,NA,NA,clear_screen,null,null,NA,NA,critical,c,d,t,164,240,220.0396,154.6796,240,164,trueblood,0.14,w,240,164,164,240,220.0396,154.6796,39360,39360,34035.6388,td,null,null,null,null,null,null,"[3,2]"
NA,canvas-keyboard-response,316,218676,0.0-6.0-4.51,5019,NA,NA,NA,NA,make choice,883,3,NA,NA,critical,c,d,t,164,240,220.0396,154.6796,240,164,trueblood,0.14,w,240,164,164,240,220.0396,154.6796,39360,39360,34035.6388,td,null,null,null,null,null,null,"[3,2]"
NA,canvas-keyboard-response,317,218845,0.0-6.0-5.51,5019,NA,NA,NA,NA,clear_screen,null,null,NA,NA,critical,c,d,t,164,240,220.0396,154.6796,240,164,trueblood,0.14,w,240,164,164,240,220.0396,154.6796,39360,39360,34035.6388,td,null,null,null,null,null,null,"[3,2]"
NA,canvas-keyboard-response,318,219061,0.0-6.0-0.52,5019,NA,NA,NA,NA,pre trial waiting period,null,null,NA,NA,critical,d,c,t,227.1683,158.0083,164,240,240,164,spektor,0.09,w,240,164,164,240,227.1683,158.0083,39360,39360,35894.4834,dc,null,null,null,null,null,null,"[1,2]"
NA,canvas-keyboard-response,319,219221,0.0-6.0-1.52,5019,NA,NA,NA,NA,clear_screen,null,null,NA,NA,critical,d,c,t,227.1683,158.0083,164,240,240,164,spektor,0.09,w,240,164,164,240,227.1683,158.0083,39360,39360,35894.4834,dc,null,null,null,null,null,null,"[1,2]"
NA,canvas-keyboard-response,320,220566,0.0-6.0-2.52,5019,NA,NA,NA,NA,rectangles,null,null,NA,NA,critical,d,c,t,227.1683,158.0083,164,240,240,164,spektor,0.09,w,240,164,164,240,227.1683,158.0083,39360,39360,35894.4834,dc,null,null,null,null,null,null,"[1,2]"
NA,canvas-keyboard-response,321,220739,0.0-6.0-3.52,5019,NA,NA,NA,NA,clear_screen,null,null,NA,NA,critical,d,c,t,227.1683,158.0083,164,240,240,164,spektor,0.09,w,240,164,164,240,227.1683,158.0083,39360,39360,35894.4834,dc,null,null,null,null,null,null,"[1,2]"
NA,canvas-keyboard-response,322,221580,0.0-6.0-4.52,5019,NA,NA,NA,NA,make choice,819,2,NA,NA,critical,d,c,t,227.1683,158.0083,164,240,240,164,spektor,0.09,w,240,164,164,240,227.1683,158.0083,39360,39360,35894.4834,dc,null,null,null,null,null,null,"[1,2]"
NA,canvas-keyboard-response,323,221750,0.0-6.0-5.52,5019,NA,NA,NA,NA,clear_screen,null,null,NA,NA,critical,d,c,t,227.1683,158.0083,164,240,240,164,spektor,0.09,w,240,164,164,240,227.1683,158.0083,39360,39360,35894.4834,dc,null,null,null,null,null,null,"[1,2]"
NA,canvas-keyboard-response,324,221969,0.0-6.0-0.53,5019,NA,NA,NA,NA,pre trial waiting period,null,null,NA,NA,critical,d,t,c,237.1485,162.6685,240,164,164,240,spektor,0.02,w,240,164,164,240,237.1485,162.6685,39360,39360,38576.5967,tc,null,null,null,null,null,null,"[2,3]"
NA,canvas-keyboard-response,325,222127,0.0-6.0-1.53,5019,NA,NA,NA,NA,clear_screen,null,null,NA,NA,critical,d,t,c,237.1485,162.6685,240,164,164,240,spektor,0.02,w,240,164,164,240,237.1485,162.6685,39360,39360,38576.5967,tc,null,null,null,null,null,null,"[2,3]"
NA,canvas-keyboard-response,326,223473,0.0-6.0-2.53,5019,NA,NA,NA,NA,rectangles,null,null,NA,NA,critical,d,t,c,237.1485,162.6685,240,164,164,240,spektor,0.02,w,240,164,164,240,237.1485,162.6685,39360,39360,38576.5967,tc,null,null,null,null,null,null,"[2,3]"
NA,canvas-keyboard-response,327,223644,0.0-6.0-3.53,5019,NA,NA,NA,NA,clear_screen,null,null,NA,NA,critical,d,t,c,237.1485,162.6685,240,164,164,240,spektor,0.02,w,240,164,164,240,237.1485,162.6685,39360,39360,38576.5967,tc,null,null,null,null,null,null,"[2,3]"
NA,canvas-keyboard-response,328,223987,0.0-6.0-4.53,5019,NA,NA,NA,NA,make choice,320,3,NA,NA,critical,d,t,c,237.1485,162.6685,240,164,164,240,spektor,0.02,w,240,164,164,240,237.1485,162.6685,39360,39360,38576.5967,tc,null,null,null,null,null,null,"[2,3]"
NA,canvas-keyboard-response,329,224158,0.0-6.0-5.53,5019,NA,NA,NA,NA,clear_screen,null,null,NA,NA,critical,d,t,c,237.1485,162.6685,240,164,164,240,spektor,0.02,w,240,164,164,240,237.1485,162.6685,39360,39360,38576.5967,tc,null,null,null,null,null,null,"[2,3]"
NA,canvas-keyboard-response,330,224371,0.0-6.0-0.54,5019,NA,NA,NA,NA,pre trial waiting period,null,null,NA,NA,critical,c,t,d,240,164,164,240,158.0083,227.1683,trueblood,0.09,h,164,240,240,164,158.0083,227.1683,39360,39360,35894.4834,td,null,null,null,null,null,null,"[2,3]"
NA,canvas-keyboard-response,331,224530,0.0-6.0-1.54,5019,NA,NA,NA,NA,clear_screen,null,null,NA,NA,critical,c,t,d,240,164,164,240,158.0083,227.1683,trueblood,0.09,h,164,240,240,164,158.0083,227.1683,39360,39360,35894.4834,td,null,null,null,null,null,null,"[2,3]"
NA,canvas-keyboard-response,332,225869,0.0-6.0-2.54,5019,NA,NA,NA,NA,rectangles,null,null,NA,NA,critical,c,t,d,240,164,164,240,158.0083,227.1683,trueblood,0.09,h,164,240,240,164,158.0083,227.1683,39360,39360,35894.4834,td,null,null,null,null,null,null,"[2,3]"
NA,canvas-keyboard-response,333,226038,0.0-6.0-3.54,5019,NA,NA,NA,NA,clear_screen,null,null,NA,NA,critical,c,t,d,240,164,164,240,158.0083,227.1683,trueblood,0.09,h,164,240,240,164,158.0083,227.1683,39360,39360,35894.4834,td,null,null,null,null,null,null,"[2,3]"
NA,canvas-keyboard-response,334,227011,0.0-6.0-4.54,5019,NA,NA,NA,NA,make choice,952,2,NA,NA,critical,c,t,d,240,164,164,240,158.0083,227.1683,trueblood,0.09,h,164,240,240,164,158.0083,227.1683,39360,39360,35894.4834,td,null,null,null,null,null,null,"[2,3]"
NA,canvas-keyboard-response,335,227181,0.0-6.0-5.54,5019,NA,NA,NA,NA,clear_screen,null,null,NA,NA,critical,c,t,d,240,164,164,240,158.0083,227.1683,trueblood,0.09,h,164,240,240,164,158.0083,227.1683,39360,39360,35894.4834,td,null,null,null,null,null,null,"[2,3]"
NA,canvas-keyboard-response,336,227401,0.0-6.0-0.55,5019,NA,NA,NA,NA,pre trial waiting period,null,null,NA,NA,critical,d,t,c,158.0083,227.1683,164,240,240,164,spektor,0.09,h,164,240,240,164,158.0083,227.1683,39360,39360,35894.4834,tc,null,null,null,null,null,null,"[2,3]"
NA,canvas-keyboard-response,337,227563,0.0-6.0-1.55,5019,NA,NA,NA,NA,clear_screen,null,null,NA,NA,critical,d,t,c,158.0083,227.1683,164,240,240,164,spektor,0.09,h,164,240,240,164,158.0083,227.1683,39360,39360,35894.4834,tc,null,null,null,null,null,null,"[2,3]"
NA,canvas-keyboard-response,338,228909,0.0-6.0-2.55,5019,NA,NA,NA,NA,rectangles,null,null,NA,NA,critical,d,t,c,158.0083,227.1683,164,240,240,164,spektor,0.09,h,164,240,240,164,158.0083,227.1683,39360,39360,35894.4834,tc,null,null,null,null,null,null,"[2,3]"
NA,canvas-keyboard-response,339,229081,0.0-6.0-3.55,5019,NA,NA,NA,NA,clear_screen,null,null,NA,NA,critical,d,t,c,158.0083,227.1683,164,240,240,164,spektor,0.09,h,164,240,240,164,158.0083,227.1683,39360,39360,35894.4834,tc,null,null,null,null,null,null,"[2,3]"
NA,canvas-keyboard-response,340,232707,0.0-6.0-4.55,5019,NA,NA,NA,NA,make choice,3607,2,NA,NA,critical,d,t,c,158.0083,227.1683,164,240,240,164,spektor,0.09,h,164,240,240,164,158.0083,227.1683,39360,39360,35894.4834,tc,null,null,null,null,null,null,"[2,3]"
NA,canvas-keyboard-response,341,232878,0.0-6.0-5.55,5019,NA,NA,NA,NA,clear_screen,null,null,NA,NA,critical,d,t,c,158.0083,227.1683,164,240,240,164,spektor,0.09,h,164,240,240,164,158.0083,227.1683,39360,39360,35894.4834,tc,null,null,null,null,null,null,"[2,3]"
NA,canvas-keyboard-response,342,233097,0.0-6.0-0.56,5019,NA,NA,NA,NA,pre trial waiting period,null,null,NA,NA,catch,l,sh,sw,285,183,206,199,215,194,spektor,null,null,null,null,null,null,null,null,null,null,null,NA,180,200,260,200,36000,52000,"[1,2]"
NA,canvas-keyboard-response,343,233260,0.0-6.0-1.56,5019,NA,NA,NA,NA,clear_screen,null,null,NA,NA,catch,l,sh,sw,285,183,206,199,215,194,spektor,null,null,null,null,null,null,null,null,null,null,null,NA,180,200,260,200,36000,52000,"[1,2]"
NA,canvas-keyboard-response,344,234605,0.0-6.0-2.56,5019,NA,NA,NA,NA,rectangles,null,null,NA,NA,catch,l,sh,sw,285,183,206,199,215,194,spektor,null,null,null,null,null,null,null,null,null,null,null,NA,180,200,260,200,36000,52000,"[1,2]"
NA,canvas-keyboard-response,345,234777,0.0-6.0-3.56,5019,NA,NA,NA,NA,clear_screen,null,null,NA,NA,catch,l,sh,sw,285,183,206,199,215,194,spektor,null,null,null,null,null,null,null,null,null,null,null,NA,180,200,260,200,36000,52000,"[1,2]"
NA,canvas-keyboard-response,346,235756,0.0-6.0-4.56,5019,NA,NA,NA,NA,make choice,958,1,NA,NA,catch,l,sh,sw,285,183,206,199,215,194,spektor,null,null,null,null,null,null,null,null,null,null,null,NA,180,200,260,200,36000,52000,"[1,2]"
NA,canvas-keyboard-response,347,235925,0.0-6.0-5.56,5019,NA,NA,NA,NA,clear_screen,null,null,NA,NA,catch,l,sh,sw,285,183,206,199,215,194,spektor,null,null,null,null,null,null,null,null,null,null,null,NA,180,200,260,200,36000,52000,"[1,2]"
NA,canvas-keyboard-response,348,236145,0.0-6.0-0.57,5019,NA,NA,NA,NA,pre trial waiting period,null,null,NA,NA,critical,t,c,d,164,240,240,164,162.6685,237.1485,spektor,0.02,h,164,240,240,164,162.6685,237.1485,39360,39360,38576.5967,tc,null,null,null,null,null,null,"[1,2]"
NA,canvas-keyboard-response,349,236307,0.0-6.0-1.57,5019,NA,NA,NA,NA,clear_screen,null,null,NA,NA,critical,t,c,d,164,240,240,164,162.6685,237.1485,spektor,0.02,h,164,240,240,164,162.6685,237.1485,39360,39360,38576.5967,tc,null,null,null,null,null,null,"[1,2]"
NA,canvas-keyboard-response,350,237655,0.0-6.0-2.57,5019,NA,NA,NA,NA,rectangles,null,null,NA,NA,critical,t,c,d,164,240,240,164,162.6685,237.1485,spektor,0.02,h,164,240,240,164,162.6685,237.1485,39360,39360,38576.5967,tc,null,null,null,null,null,null,"[1,2]"
NA,canvas-keyboard-response,351,237827,0.0-6.0-3.57,5019,NA,NA,NA,NA,clear_screen,null,null,NA,NA,critical,t,c,d,164,240,240,164,162.6685,237.1485,spektor,0.02,h,164,240,240,164,162.6685,237.1485,39360,39360,38576.5967,tc,null,null,null,null,null,null,"[1,2]"
NA,canvas-keyboard-response,352,239989,0.0-6.0-4.57,5019,NA,NA,NA,NA,make choice,2137,1,NA,NA,critical,t,c,d,164,240,240,164,162.6685,237.1485,spektor,0.02,h,164,240,240,164,162.6685,237.1485,39360,39360,38576.5967,tc,null,null,null,null,null,null,"[1,2]"
NA,canvas-keyboard-response,353,240158,0.0-6.0-5.57,5019,NA,NA,NA,NA,clear_screen,null,null,NA,NA,critical,t,c,d,164,240,240,164,162.6685,237.1485,spektor,0.02,h,164,240,240,164,162.6685,237.1485,39360,39360,38576.5967,tc,null,null,null,null,null,null,"[1,2]"
NA,canvas-keyboard-response,354,240373,0.0-6.0-0.58,5019,NA,NA,NA,NA,pre trial waiting period,null,null,NA,NA,critical,d,t,c,160.6713,232.8713,164,240,240,164,trueblood,0.05,h,164,240,240,164,160.6713,232.8713,39360,39360,37415.7294,dc,null,null,null,null,null,null,"[1,3]"
NA,canvas-keyboard-response,355,240528,0.0-6.0-1.58,5019,NA,NA,NA,NA,clear_screen,null,null,NA,NA,critical,d,t,c,160.6713,232.8713,164,240,240,164,trueblood,0.05,h,164,240,240,164,160.6713,232.8713,39360,39360,37415.7294,dc,null,null,null,null,null,null,"[1,3]"
NA,canvas-keyboard-response,356,241876,0.0-6.0-2.58,5019,NA,NA,NA,NA,rectangles,null,null,NA,NA,critical,d,t,c,160.6713,232.8713,164,240,240,164,trueblood,0.05,h,164,240,240,164,160.6713,232.8713,39360,39360,37415.7294,dc,null,null,null,null,null,null,"[1,3]"
NA,canvas-keyboard-response,357,242057,0.0-6.0-3.58,5019,NA,NA,NA,NA,clear_screen,null,null,NA,NA,critical,d,t,c,160.6713,232.8713,164,240,240,164,trueblood,0.05,h,164,240,240,164,160.6713,232.8713,39360,39360,37415.7294,dc,null,null,null,null,null,null,"[1,3]"
NA,canvas-keyboard-response,358,244260,0.0-6.0-4.58,5019,NA,NA,NA,NA,make choice,2170,3,NA,NA,critical,d,t,c,160.6713,232.8713,164,240,240,164,trueblood,0.05,h,164,240,240,164,160.6713,232.8713,39360,39360,37415.7294,dc,null,null,null,null,null,null,"[1,3]"
NA,canvas-keyboard-response,359,244428,0.0-6.0-5.58,5019,NA,NA,NA,NA,clear_screen,null,null,NA,NA,critical,d,t,c,160.6713,232.8713,164,240,240,164,trueblood,0.05,h,164,240,240,164,160.6713,232.8713,39360,39360,37415.7294,dc,null,null,null,null,null,null,"[1,3]"
NA,canvas-keyboard-response,360,244647,0.0-6.0-0.59,5019,NA,NA,NA,NA,pre trial waiting period,null,null,NA,NA,catch,sh,l,sw,172,159,271,198,215,235,trueblood,null,null,null,null,null,null,null,null,null,null,null,NA,180,200,260,200,36000,52000,"[2,3]"
NA,canvas-keyboard-response,361,244802,0.0-6.0-1.59,5019,NA,NA,NA,NA,clear_screen,null,null,NA,NA,catch,sh,l,sw,172,159,271,198,215,235,trueblood,null,null,null,null,null,null,null,null,null,null,null,NA,180,200,260,200,36000,52000,"[2,3]"
NA,canvas-keyboard-response,362,246151,0.0-6.0-2.59,5019,NA,NA,NA,NA,rectangles,null,null,NA,NA,catch,sh,l,sw,172,159,271,198,215,235,trueblood,null,null,null,null,null,null,null,null,null,null,null,NA,180,200,260,200,36000,52000,"[2,3]"
NA,canvas-keyboard-response,363,246324,0.0-6.0-3.59,5019,NA,NA,NA,NA,clear_screen,null,null,NA,NA,catch,sh,l,sw,172,159,271,198,215,235,trueblood,null,null,null,null,null,null,null,null,null,null,null,NA,180,200,260,200,36000,52000,"[2,3]"
NA,canvas-keyboard-response,364,247421,0.0-6.0-4.59,5019,NA,NA,NA,NA,make choice,1075,2,NA,NA,catch,sh,l,sw,172,159,271,198,215,235,trueblood,null,null,null,null,null,null,null,null,null,null,null,NA,180,200,260,200,36000,52000,"[2,3]"
NA,canvas-keyboard-response,365,247591,0.0-6.0-5.59,5019,NA,NA,NA,NA,clear_screen,null,null,NA,NA,catch,sh,l,sw,172,159,271,198,215,235,trueblood,null,null,null,null,null,null,null,null,null,null,null,NA,180,200,260,200,36000,52000,"[2,3]"
NA,canvas-keyboard-response,366,247812,0.0-6.0-0.60,5019,NA,NA,NA,NA,pre trial waiting period,null,null,NA,NA,critical,c,t,d,164,240,240,164,237.1485,162.6685,trueblood,0.02,w,240,164,164,240,237.1485,162.6685,39360,39360,38576.5967,dc,null,null,null,null,null,null,"[3,1]"
NA,canvas-keyboard-response,367,247969,0.0-6.0-1.60,5019,NA,NA,NA,NA,clear_screen,null,null,NA,NA,critical,c,t,d,164,240,240,164,237.1485,162.6685,trueblood,0.02,w,240,164,164,240,237.1485,162.6685,39360,39360,38576.5967,dc,null,null,null,null,null,null,"[3,1]"
NA,canvas-keyboard-response,368,249316,0.0-6.0-2.60,5019,NA,NA,NA,NA,rectangles,null,null,NA,NA,critical,c,t,d,164,240,240,164,237.1485,162.6685,trueblood,0.02,w,240,164,164,240,237.1485,162.6685,39360,39360,38576.5967,dc,null,null,null,null,null,null,"[3,1]"
NA,canvas-keyboard-response,369,249491,0.0-6.0-3.60,5019,NA,NA,NA,NA,clear_screen,null,null,NA,NA,critical,c,t,d,164,240,240,164,237.1485,162.6685,trueblood,0.02,w,240,164,164,240,237.1485,162.6685,39360,39360,38576.5967,dc,null,null,null,null,null,null,"[3,1]"
NA,canvas-keyboard-response,370,254652,0.0-6.0-4.60,5019,NA,NA,NA,NA,make choice,5137,3,NA,NA,critical,c,t,d,164,240,240,164,237.1485,162.6685,trueblood,0.02,w,240,164,164,240,237.1485,162.6685,39360,39360,38576.5967,dc,null,null,null,null,null,null,"[3,1]"
NA,canvas-keyboard-response,371,254822,0.0-6.0-5.60,5019,NA,NA,NA,NA,clear_screen,null,null,NA,NA,critical,c,t,d,164,240,240,164,237.1485,162.6685,trueblood,0.02,w,240,164,164,240,237.1485,162.6685,39360,39360,38576.5967,dc,null,null,null,null,null,null,"[3,1]"
NA,canvas-keyboard-response,372,255040,0.0-6.0-0.61,5019,NA,NA,NA,NA,pre trial waiting period,null,null,NA,NA,critical,c,t,d,164,240,240,164,240,164,trueblood,0,w,240,164,164,240,240,164,39360,39360,39360,td,null,null,null,null,null,null,"[2,3]"
NA,canvas-keyboard-response,373,255198,0.0-6.0-1.61,5019,NA,NA,NA,NA,clear_screen,null,null,NA,NA,critical,c,t,d,164,240,240,164,240,164,trueblood,0,w,240,164,164,240,240,164,39360,39360,39360,td,null,null,null,null,null,null,"[2,3]"
NA,canvas-keyboard-response,374,256547,0.0-6.0-2.61,5019,NA,NA,NA,NA,rectangles,null,null,NA,NA,critical,c,t,d,164,240,240,164,240,164,trueblood,0,w,240,164,164,240,240,164,39360,39360,39360,td,null,null,null,null,null,null,"[2,3]"
NA,canvas-keyboard-response,375,256719,0.0-6.0-3.61,5019,NA,NA,NA,NA,clear_screen,null,null,NA,NA,critical,c,t,d,164,240,240,164,240,164,trueblood,0,w,240,164,164,240,240,164,39360,39360,39360,td,null,null,null,null,null,null,"[2,3]"
NA,canvas-keyboard-response,376,257708,0.0-6.0-4.61,5019,NA,NA,NA,NA,make choice,966,3,NA,NA,critical,c,t,d,164,240,240,164,240,164,trueblood,0,w,240,164,164,240,240,164,39360,39360,39360,td,null,null,null,null,null,null,"[2,3]"
NA,canvas-keyboard-response,377,257880,0.0-6.0-5.61,5019,NA,NA,NA,NA,clear_screen,null,null,NA,NA,critical,c,t,d,164,240,240,164,240,164,trueblood,0,w,240,164,164,240,240,164,39360,39360,39360,td,null,null,null,null,null,null,"[2,3]"
NA,canvas-keyboard-response,378,258098,0.0-6.0-0.62,5019,NA,NA,NA,NA,pre trial waiting period,null,null,NA,NA,critical,t,d,c,164,240,158.0083,227.1683,240,164,spektor,0.09,h,164,240,240,164,158.0083,227.1683,39360,39360,35894.4834,dc,null,null,null,null,null,null,"[2,3]"
NA,canvas-keyboard-response,379,258252,0.0-6.0-1.62,5019,NA,NA,NA,NA,clear_screen,null,null,NA,NA,critical,t,d,c,164,240,158.0083,227.1683,240,164,spektor,0.09,h,164,240,240,164,158.0083,227.1683,39360,39360,35894.4834,dc,null,null,null,null,null,null,"[2,3]"
NA,canvas-keyboard-response,380,259600,0.0-6.0-2.62,5019,NA,NA,NA,NA,rectangles,null,null,NA,NA,critical,t,d,c,164,240,158.0083,227.1683,240,164,spektor,0.09,h,164,240,240,164,158.0083,227.1683,39360,39360,35894.4834,dc,null,null,null,null,null,null,"[2,3]"
NA,canvas-keyboard-response,381,259775,0.0-6.0-3.62,5019,NA,NA,NA,NA,clear_screen,null,null,NA,NA,critical,t,d,c,164,240,158.0083,227.1683,240,164,spektor,0.09,h,164,240,240,164,158.0083,227.1683,39360,39360,35894.4834,dc,null,null,null,null,null,null,"[2,3]"
NA,canvas-keyboard-response,382,263203,0.0-6.0-4.62,5019,NA,NA,NA,NA,make choice,3406,2,NA,NA,critical,t,d,c,164,240,158.0083,227.1683,240,164,spektor,0.09,h,164,240,240,164,158.0083,227.1683,39360,39360,35894.4834,dc,null,null,null,null,null,null,"[2,3]"
NA,canvas-keyboard-response,383,263375,0.0-6.0-5.62,5019,NA,NA,NA,NA,clear_screen,null,null,NA,NA,critical,t,d,c,164,240,158.0083,227.1683,240,164,spektor,0.09,h,164,240,240,164,158.0083,227.1683,39360,39360,35894.4834,dc,null,null,null,null,null,null,"[2,3]"
NA,canvas-keyboard-response,384,263594,0.0-6.0-0.63,5019,NA,NA,NA,NA,pre trial waiting period,null,null,NA,NA,critical,t,d,c,240,164,227.1683,158.0083,164,240,spektor,0.09,w,240,164,164,240,227.1683,158.0083,39360,39360,35894.4834,td,null,null,null,null,null,null,"[1,2]"
NA,canvas-keyboard-response,385,263749,0.0-6.0-1.63,5019,NA,NA,NA,NA,clear_screen,null,null,NA,NA,critical,t,d,c,240,164,227.1683,158.0083,164,240,spektor,0.09,w,240,164,164,240,227.1683,158.0083,39360,39360,35894.4834,td,null,null,null,null,null,null,"[1,2]"
NA,canvas-keyboard-response,386,265095,0.0-6.0-2.63,5019,NA,NA,NA,NA,rectangles,null,null,NA,NA,critical,t,d,c,240,164,227.1683,158.0083,164,240,spektor,0.09,w,240,164,164,240,227.1683,158.0083,39360,39360,35894.4834,td,null,null,null,null,null,null,"[1,2]"
NA,canvas-keyboard-response,387,265264,0.0-6.0-3.63,5019,NA,NA,NA,NA,clear_screen,null,null,NA,NA,critical,t,d,c,240,164,227.1683,158.0083,164,240,spektor,0.09,w,240,164,164,240,227.1683,158.0083,39360,39360,35894.4834,td,null,null,null,null,null,null,"[1,2]"
NA,canvas-keyboard-response,388,272580,0.0-6.0-4.63,5019,NA,NA,NA,NA,make choice,7294,1,NA,NA,critical,t,d,c,240,164,227.1683,158.0083,164,240,spektor,0.09,w,240,164,164,240,227.1683,158.0083,39360,39360,35894.4834,td,null,null,null,null,null,null,"[1,2]"
NA,canvas-keyboard-response,389,272749,0.0-6.0-5.63,5019,NA,NA,NA,NA,clear_screen,null,null,NA,NA,critical,t,d,c,240,164,227.1683,158.0083,164,240,spektor,0.09,w,240,164,164,240,227.1683,158.0083,39360,39360,35894.4834,td,null,null,null,null,null,null,"[1,2]"
NA,canvas-keyboard-response,390,272970,0.0-6.0-0.64,5019,NA,NA,NA,NA,pre trial waiting period,null,null,NA,NA,critical,c,t,d,240,164,164,240,164,240,trueblood,0,h,164,240,240,164,164,240,39360,39360,39360,dc,null,null,null,null,null,null,"[3,1]"
NA,canvas-keyboard-response,391,273130,0.0-6.0-1.64,5019,NA,NA,NA,NA,clear_screen,null,null,NA,NA,critical,c,t,d,240,164,164,240,164,240,trueblood,0,h,164,240,240,164,164,240,39360,39360,39360,dc,null,null,null,null,null,null,"[3,1]"
NA,canvas-keyboard-response,392,274480,0.0-6.0-2.64,5019,NA,NA,NA,NA,rectangles,null,null,NA,NA,critical,c,t,d,240,164,164,240,164,240,trueblood,0,h,164,240,240,164,164,240,39360,39360,39360,dc,null,null,null,null,null,null,"[3,1]"
NA,canvas-keyboard-response,393,274665,0.0-6.0-3.64,5019,NA,NA,NA,NA,clear_screen,null,null,NA,NA,critical,c,t,d,240,164,164,240,164,240,trueblood,0,h,164,240,240,164,164,240,39360,39360,39360,dc,null,null,null,null,null,null,"[3,1]"
NA,canvas-keyboard-response,394,275548,0.0-6.0-4.64,5019,NA,NA,NA,NA,make choice,851,1,NA,NA,critical,c,t,d,240,164,164,240,164,240,trueblood,0,h,164,240,240,164,164,240,39360,39360,39360,dc,null,null,null,null,null,null,"[3,1]"
NA,canvas-keyboard-response,395,275719,0.0-6.0-5.64,5019,NA,NA,NA,NA,clear_screen,null,null,NA,NA,critical,c,t,d,240,164,164,240,164,240,trueblood,0,h,164,240,240,164,164,240,39360,39360,39360,dc,null,null,null,null,null,null,"[3,1]"
NA,canvas-keyboard-response,396,275941,0.0-6.0-0.65,5019,NA,NA,NA,NA,pre trial waiting period,null,null,NA,NA,critical,d,c,t,237.1485,162.6685,164,240,240,164,trueblood,0.02,w,240,164,164,240,237.1485,162.6685,39360,39360,38576.5967,td,null,null,null,null,null,null,"[3,1]"
NA,canvas-keyboard-response,397,276101,0.0-6.0-1.65,5019,NA,NA,NA,NA,clear_screen,null,null,NA,NA,critical,d,c,t,237.1485,162.6685,164,240,240,164,trueblood,0.02,w,240,164,164,240,237.1485,162.6685,39360,39360,38576.5967,td,null,null,null,null,null,null,"[3,1]"
NA,canvas-keyboard-response,398,277449,0.0-6.0-2.65,5019,NA,NA,NA,NA,rectangles,null,null,NA,NA,critical,d,c,t,237.1485,162.6685,164,240,240,164,trueblood,0.02,w,240,164,164,240,237.1485,162.6685,39360,39360,38576.5967,td,null,null,null,null,null,null,"[3,1]"
NA,canvas-keyboard-response,399,277622,0.0-6.0-3.65,5019,NA,NA,NA,NA,clear_screen,null,null,NA,NA,critical,d,c,t,237.1485,162.6685,164,240,240,164,trueblood,0.02,w,240,164,164,240,237.1485,162.6685,39360,39360,38576.5967,td,null,null,null,null,null,null,"[3,1]"
