"success","trial_type","trial_index","time_elapsed","internal_node_id","sub_n","timeout","failed_images","failed_audio","failed_video","screen_id","rt","response","stimulus","view_history","trial","r1","r2","r3","w1","h1","w2","h2","w3","h3","display","tdd","tdo","tw","th","cw","ch","dw","dh","ta","ca","da","probe","csls","csss","clls","clss","sa","la","probe_rects"
"true","fullscreen","0","8383","0.0-0.0","27","","","","","","","","","","","","","","","","","","","","","","","","","","","","","","","","","","","","","","",""
"true","preload","1","8402","0.0-1.0","27","false","[]","[]","[]","img preload","","","","","","","","","","","","","","","","","","","","","","","","","","","","","","","","","",""
"","survey-html-form","2","23866","0.0-2.0","27","","","","","enter-sub-number","15458","{""response"":""27""}","","","","","","","","","","","","","","","","","","","","","","","","","","","","","","","",""
"","image-button-response","3","44206","0.0-3.0","27","","","","","","20270","0","consent.png","","","","","","","","","","","","","","","","","","","","","","","","","","","","","","",""
"","html-button-response","4","46838","0.0-4.0","27","","","","","intro mssg","2625","0","<div style= ""font-size:25px;"" <p> <strong> Welcome! </strong><br> <p style=""color:#8B0000; font-size:25px;""><strong> Please do NOT exit full screen until you are done with the experiment. </strong> </p><p style=""font-size:25px;color:#8B0000;""> <strong> Your data will be lost <br> if you try to go back or refresh the page after the experiment starts. Feel free to click ""previous"" during the instructions, however.</strong> </p><br><p> <strong> Thanks in advance for your contribution to our research! </strong></p>","","","","","","","","","","","","","","","","","","","","","","","","","","","","","","",""
"","instructions","5","69341","0.0-5.0","27","","","","","instructions","22499","","","[{""page_index"":0,""viewing_time"":3803},{""page_index"":1,""viewing_time"":3759},{""page_index"":2,""viewing_time"":2641},{""page_index"":3,""viewing_time"":4943},{""page_index"":4,""viewing_time"":3408},{""page_index"":5,""viewing_time"":1321},{""page_index"":6,""viewing_time"":2063},{""page_index"":7,""viewing_time"":560}]","","","","","","","","","","","","","","","","","","","","","","","","","","","","","",""
"","canvas-keyboard-response","6","69546","0.0-6.0-0.0","27","","","","","pre trial waiting period","null","null","","","critical","d","c","t","162.6685","237.1485","240","164","164","240","spektor","0.02","h","164","240","240","164","162.6685","237.1485","39360","39360","38576.5967","tc","null","null","null","null","null","null","[3,2]"
"","canvas-keyboard-response","7","69714","0.0-6.0-1.0","27","","","","","clear_screen","null","null","","","critical","d","c","t","162.6685","237.1485","240","164","164","240","spektor","0.02","h","164","240","240","164","162.6685","237.1485","39360","39360","38576.5967","tc","null","null","null","null","null","null","[3,2]"
"","canvas-keyboard-response","8","71057","0.0-6.0-2.0","27","","","","","rectangles","null","null","","","critical","d","c","t","162.6685","237.1485","240","164","164","240","spektor","0.02","h","164","240","240","164","162.6685","237.1485","39360","39360","38576.5967","tc","null","null","null","null","null","null","[3,2]"
"","canvas-keyboard-response","9","71220","0.0-6.0-3.0","27","","","","","clear_screen","null","null","","","critical","d","c","t","162.6685","237.1485","240","164","164","240","spektor","0.02","h","164","240","240","164","162.6685","237.1485","39360","39360","38576.5967","tc","null","null","null","null","null","null","[3,2]"
"","canvas-keyboard-response","10","74373","0.0-6.0-4.0","27","","","","","make choice","3140","3","","","critical","d","c","t","162.6685","237.1485","240","164","164","240","spektor","0.02","h","164","240","240","164","162.6685","237.1485","39360","39360","38576.5967","tc","null","null","null","null","null","null","[3,2]"
"","canvas-keyboard-response","11","74533","0.0-6.0-5.0","27","","","","","clear_screen","null","null","","","critical","d","c","t","162.6685","237.1485","240","164","164","240","spektor","0.02","h","164","240","240","164","162.6685","237.1485","39360","39360","38576.5967","tc","null","null","null","null","null","null","[3,2]"
"","canvas-keyboard-response","12","74735","0.0-6.0-0.1","27","","","","","pre trial waiting period","null","null","","","critical","t","c","d","164","240","240","164","160.6713","232.8713","trueblood","0.05","h","164","240","240","164","160.6713","232.8713","39360","39360","37415.7294","tc","null","null","null","null","null","null","[1,2]"
"","canvas-keyboard-response","13","74897","0.0-6.0-1.1","27","","","","","clear_screen","null","null","","","critical","t","c","d","164","240","240","164","160.6713","232.8713","trueblood","0.05","h","164","240","240","164","160.6713","232.8713","39360","39360","37415.7294","tc","null","null","null","null","null","null","[1,2]"
"","canvas-keyboard-response","14","76234","0.0-6.0-2.1","27","","","","","rectangles","null","null","","","critical","t","c","d","164","240","240","164","160.6713","232.8713","trueblood","0.05","h","164","240","240","164","160.6713","232.8713","39360","39360","37415.7294","tc","null","null","null","null","null","null","[1,2]"
"","canvas-keyboard-response","15","76395","0.0-6.0-3.1","27","","","","","clear_screen","null","null","","","critical","t","c","d","164","240","240","164","160.6713","232.8713","trueblood","0.05","h","164","240","240","164","160.6713","232.8713","39360","39360","37415.7294","tc","null","null","null","null","null","null","[1,2]"
"","canvas-keyboard-response","16","77621","0.0-6.0-4.1","27","","","","","make choice","1214","2","","","critical","t","c","d","164","240","240","164","160.6713","232.8713","trueblood","0.05","h","164","240","240","164","160.6713","232.8713","39360","39360","37415.7294","tc","null","null","null","null","null","null","[1,2]"
"","canvas-keyboard-response","17","77781","0.0-6.0-5.1","27","","","","","clear_screen","null","null","","","critical","t","c","d","164","240","240","164","160.6713","232.8713","trueblood","0.05","h","164","240","240","164","160.6713","232.8713","39360","39360","37415.7294","tc","null","null","null","null","null","null","[1,2]"
"","canvas-keyboard-response","18","77982","0.0-6.0-0.2","27","","","","","pre trial waiting period","null","null","","","critical","c","t","d","164","240","240","164","232.8713","160.6713","trueblood","0.05","w","240","164","164","240","232.8713","160.6713","39360","39360","37415.7294","dc","null","null","null","null","null","null","[3,1]"
"","canvas-keyboard-response","19","78145","0.0-6.0-1.2","27","","","","","clear_screen","null","null","","","critical","c","t","d","164","240","240","164","232.8713","160.6713","trueblood","0.05","w","240","164","164","240","232.8713","160.6713","39360","39360","37415.7294","dc","null","null","null","null","null","null","[3,1]"
"","canvas-keyboard-response","20","79485","0.0-6.0-2.2","27","","","","","rectangles","null","null","","","critical","c","t","d","164","240","240","164","232.8713","160.6713","trueblood","0.05","w","240","164","164","240","232.8713","160.6713","39360","39360","37415.7294","dc","null","null","null","null","null","null","[3,1]"
"","canvas-keyboard-response","21","79644","0.0-6.0-3.2","27","","","","","clear_screen","null","null","","","critical","c","t","d","164","240","240","164","232.8713","160.6713","trueblood","0.05","w","240","164","164","240","232.8713","160.6713","39360","39360","37415.7294","dc","null","null","null","null","null","null","[3,1]"
"","canvas-keyboard-response","22","83173","0.0-6.0-4.2","27","","","","","make choice","3518","1","","","critical","c","t","d","164","240","240","164","232.8713","160.6713","trueblood","0.05","w","240","164","164","240","232.8713","160.6713","39360","39360","37415.7294","dc","null","null","null","null","null","null","[3,1]"
"","canvas-keyboard-response","23","83331","0.0-6.0-5.2","27","","","","","clear_screen","null","null","","","critical","c","t","d","164","240","240","164","232.8713","160.6713","trueblood","0.05","w","240","164","164","240","232.8713","160.6713","39360","39360","37415.7294","dc","null","null","null","null","null","null","[3,1]"
"","canvas-keyboard-response","24","83533","0.0-6.0-0.3","27","","","","","pre trial waiting period","null","null","","","critical","d","t","c","237.1485","162.6685","240","164","164","240","spektor","0.02","w","240","164","164","240","237.1485","162.6685","39360","39360","38576.5967","dc","null","null","null","null","null","null","[1,3]"
"","canvas-keyboard-response","25","83696","0.0-6.0-1.3","27","","","","","clear_screen","null","null","","","critical","d","t","c","237.1485","162.6685","240","164","164","240","spektor","0.02","w","240","164","164","240","237.1485","162.6685","39360","39360","38576.5967","dc","null","null","null","null","null","null","[1,3]"
"","canvas-keyboard-response","26","85036","0.0-6.0-2.3","27","","","","","rectangles","null","null","","","critical","d","t","c","237.1485","162.6685","240","164","164","240","spektor","0.02","w","240","164","164","240","237.1485","162.6685","39360","39360","38576.5967","dc","null","null","null","null","null","null","[1,3]"
"","canvas-keyboard-response","27","85201","0.0-6.0-3.3","27","","","","","clear_screen","null","null","","","critical","d","t","c","237.1485","162.6685","240","164","164","240","spektor","0.02","w","240","164","164","240","237.1485","162.6685","39360","39360","38576.5967","dc","null","null","null","null","null","null","[1,3]"
"","canvas-keyboard-response","28","86252","0.0-6.0-4.3","27","","","","","make choice","1039","3","","","critical","d","t","c","237.1485","162.6685","240","164","164","240","spektor","0.02","w","240","164","164","240","237.1485","162.6685","39360","39360","38576.5967","dc","null","null","null","null","null","null","[1,3]"
"","canvas-keyboard-response","29","86413","0.0-6.0-5.3","27","","","","","clear_screen","null","null","","","critical","d","t","c","237.1485","162.6685","240","164","164","240","spektor","0.02","w","240","164","164","240","237.1485","162.6685","39360","39360","38576.5967","dc","null","null","null","null","null","null","[1,3]"
"","canvas-keyboard-response","30","86615","0.0-6.0-0.4","27","","","","","pre trial waiting period","null","null","","","critical","c","d","t","164","240","227.1683","158.0083","240","164","spektor","0.09","w","240","164","164","240","227.1683","158.0083","39360","39360","35894.4834","dc","null","null","null","null","null","null","[2,1]"
"","canvas-keyboard-response","31","86777","0.0-6.0-1.4","27","","","","","clear_screen","null","null","","","critical","c","d","t","164","240","227.1683","158.0083","240","164","spektor","0.09","w","240","164","164","240","227.1683","158.0083","39360","39360","35894.4834","dc","null","null","null","null","null","null","[2,1]"
"","canvas-keyboard-response","32","88117","0.0-6.0-2.4","27","","","","","rectangles","null","null","","","critical","c","d","t","164","240","227.1683","158.0083","240","164","spektor","0.09","w","240","164","164","240","227.1683","158.0083","39360","39360","35894.4834","dc","null","null","null","null","null","null","[2,1]"
"","canvas-keyboard-response","33","88280","0.0-6.0-3.4","27","","","","","clear_screen","null","null","","","critical","c","d","t","164","240","227.1683","158.0083","240","164","spektor","0.09","w","240","164","164","240","227.1683","158.0083","39360","39360","35894.4834","dc","null","null","null","null","null","null","[2,1]"
"","canvas-keyboard-response","34","89156","0.0-6.0-4.4","27","","","","","make choice","863","1","","","critical","c","d","t","164","240","227.1683","158.0083","240","164","spektor","0.09","w","240","164","164","240","227.1683","158.0083","39360","39360","35894.4834","dc","null","null","null","null","null","null","[2,1]"
"","canvas-keyboard-response","35","89319","0.0-6.0-5.4","27","","","","","clear_screen","null","null","","","critical","c","d","t","164","240","227.1683","158.0083","240","164","spektor","0.09","w","240","164","164","240","227.1683","158.0083","39360","39360","35894.4834","dc","null","null","null","null","null","null","[2,1]"
"","canvas-keyboard-response","36","89520","0.0-6.0-0.5","27","","","","","pre trial waiting period","null","null","","","catch","sh","l","sw","186","145","291","172","201","229","spektor","null","null","null","null","null","null","null","null","null","null","null","","180","200","260","200","36000","52000","[2,3]"
"","canvas-keyboard-response","37","89685","0.0-6.0-1.5","27","","","","","clear_screen","null","null","","","catch","sh","l","sw","186","145","291","172","201","229","spektor","null","null","null","null","null","null","null","null","null","null","null","","180","200","260","200","36000","52000","[2,3]"
"","canvas-keyboard-response","38","91020","0.0-6.0-2.5","27","","","","","rectangles","null","null","","","catch","sh","l","sw","186","145","291","172","201","229","spektor","null","null","null","null","null","null","null","null","null","null","null","","180","200","260","200","36000","52000","[2,3]"
"","canvas-keyboard-response","39","91184","0.0-6.0-3.5","27","","","","","clear_screen","null","null","","","catch","sh","l","sw","186","145","291","172","201","229","spektor","null","null","null","null","null","null","null","null","null","null","null","","180","200","260","200","36000","52000","[2,3]"
"","canvas-keyboard-response","40","92580","0.0-6.0-4.5","27","","","","","make choice","1385","2","","","catch","sh","l","sw","186","145","291","172","201","229","spektor","null","null","null","null","null","null","null","null","null","null","null","","180","200","260","200","36000","52000","[2,3]"
"","canvas-keyboard-response","41","92742","0.0-6.0-5.5","27","","","","","clear_screen","null","null","","","catch","sh","l","sw","186","145","291","172","201","229","spektor","null","null","null","null","null","null","null","null","null","null","null","","180","200","260","200","36000","52000","[2,3]"
"","canvas-keyboard-response","42","92945","0.0-6.0-0.6","27","","","","","pre trial waiting period","null","null","","","catch","sw","sh","l","180","200","234","167","275","180","spektor","null","null","null","null","null","null","null","null","null","null","null","","180","200","260","200","36000","52000","[1,3]"
"","canvas-keyboard-response","43","93106","0.0-6.0-1.6","27","","","","","clear_screen","null","null","","","catch","sw","sh","l","180","200","234","167","275","180","spektor","null","null","null","null","null","null","null","null","null","null","null","","180","200","260","200","36000","52000","[1,3]"
"","canvas-keyboard-response","44","94441","0.0-6.0-2.6","27","","","","","rectangles","null","null","","","catch","sw","sh","l","180","200","234","167","275","180","spektor","null","null","null","null","null","null","null","null","null","null","null","","180","200","260","200","36000","52000","[1,3]"
"","canvas-keyboard-response","45","94601","0.0-6.0-3.6","27","","","","","clear_screen","null","null","","","catch","sw","sh","l","180","200","234","167","275","180","spektor","null","null","null","null","null","null","null","null","null","null","null","","180","200","260","200","36000","52000","[1,3]"
"","canvas-keyboard-response","46","95188","0.0-6.0-4.6","27","","","","","make choice","574","3","","","catch","sw","sh","l","180","200","234","167","275","180","spektor","null","null","null","null","null","null","null","null","null","null","null","","180","200","260","200","36000","52000","[1,3]"
"","canvas-keyboard-response","47","95346","0.0-6.0-5.6","27","","","","","clear_screen","null","null","","","catch","sw","sh","l","180","200","234","167","275","180","spektor","null","null","null","null","null","null","null","null","null","null","null","","180","200","260","200","36000","52000","[1,3]"
"","canvas-keyboard-response","48","95548","0.0-6.0-0.7","27","","","","","pre trial waiting period","null","null","","","critical","d","c","t","160.6713","232.8713","240","164","164","240","spektor","0.05","h","164","240","240","164","160.6713","232.8713","39360","39360","37415.7294","dc","null","null","null","null","null","null","[1,2]"
"","canvas-keyboard-response","49","95709","0.0-6.0-1.7","27","","","","","clear_screen","null","null","","","critical","d","c","t","160.6713","232.8713","240","164","164","240","spektor","0.05","h","164","240","240","164","160.6713","232.8713","39360","39360","37415.7294","dc","null","null","null","null","null","null","[1,2]"
"","canvas-keyboard-response","50","97048","0.0-6.0-2.7","27","","","","","rectangles","null","null","","","critical","d","c","t","160.6713","232.8713","240","164","164","240","spektor","0.05","h","164","240","240","164","160.6713","232.8713","39360","39360","37415.7294","dc","null","null","null","null","null","null","[1,2]"
"","canvas-keyboard-response","51","97212","0.0-6.0-3.7","27","","","","","clear_screen","null","null","","","critical","d","c","t","160.6713","232.8713","240","164","164","240","spektor","0.05","h","164","240","240","164","160.6713","232.8713","39360","39360","37415.7294","dc","null","null","null","null","null","null","[1,2]"
"","canvas-keyboard-response","52","99524","0.0-6.0-4.7","27","","","","","make choice","2303","1","","","critical","d","c","t","160.6713","232.8713","240","164","164","240","spektor","0.05","h","164","240","240","164","160.6713","232.8713","39360","39360","37415.7294","dc","null","null","null","null","null","null","[1,2]"
"","canvas-keyboard-response","53","99684","0.0-6.0-5.7","27","","","","","clear_screen","null","null","","","critical","d","c","t","160.6713","232.8713","240","164","164","240","spektor","0.05","h","164","240","240","164","160.6713","232.8713","39360","39360","37415.7294","dc","null","null","null","null","null","null","[1,2]"
"","canvas-keyboard-response","54","99885","0.0-6.0-0.8","27","","","","","pre trial waiting period","null","null","","","catch","sw","l","sh","180","200","226","271","233","157","spektor","null","null","null","null","null","null","null","null","null","null","null","","180","200","260","200","36000","52000","[1,2]"
"","canvas-keyboard-response","55","100051","0.0-6.0-1.8","27","","","","","clear_screen","null","null","","","catch","sw","l","sh","180","200","226","271","233","157","spektor","null","null","null","null","null","null","null","null","null","null","null","","180","200","260","200","36000","52000","[1,2]"
"","canvas-keyboard-response","56","101392","0.0-6.0-2.8","27","","","","","rectangles","null","null","","","catch","sw","l","sh","180","200","226","271","233","157","spektor","null","null","null","null","null","null","null","null","null","null","null","","180","200","260","200","36000","52000","[1,2]"
"","canvas-keyboard-response","57","101552","0.0-6.0-3.8","27","","","","","clear_screen","null","null","","","catch","sw","l","sh","180","200","226","271","233","157","spektor","null","null","null","null","null","null","null","null","null","null","null","","180","200","260","200","36000","52000","[1,2]"
"","canvas-keyboard-response","58","102101","0.0-6.0-4.8","27","","","","","make choice","534","2","","","catch","sw","l","sh","180","200","226","271","233","157","spektor","null","null","null","null","null","null","null","null","null","null","null","","180","200","260","200","36000","52000","[1,2]"
"","canvas-keyboard-response","59","102262","0.0-6.0-5.8","27","","","","","clear_screen","null","null","","","catch","sw","l","sh","180","200","226","271","233","157","spektor","null","null","null","null","null","null","null","null","null","null","null","","180","200","260","200","36000","52000","[1,2]"
"","canvas-keyboard-response","60","102463","0.0-6.0-0.9","27","","","","","pre trial waiting period","null","null","","","critical","d","t","c","158.0083","227.1683","164","240","240","164","spektor","0.09","h","164","240","240","164","158.0083","227.1683","39360","39360","35894.4834","tc","null","null","null","null","null","null","[2,3]"
"","canvas-keyboard-response","61","102623","0.0-6.0-1.9","27","","","","","clear_screen","null","null","","","critical","d","t","c","158.0083","227.1683","164","240","240","164","spektor","0.09","h","164","240","240","164","158.0083","227.1683","39360","39360","35894.4834","tc","null","null","null","null","null","null","[2,3]"
"","canvas-keyboard-response","62","103961","0.0-6.0-2.9","27","","","","","rectangles","null","null","","","critical","d","t","c","158.0083","227.1683","164","240","240","164","spektor","0.09","h","164","240","240","164","158.0083","227.1683","39360","39360","35894.4834","tc","null","null","null","null","null","null","[2,3]"
"","canvas-keyboard-response","63","104120","0.0-6.0-3.9","27","","","","","clear_screen","null","null","","","critical","d","t","c","158.0083","227.1683","164","240","240","164","spektor","0.09","h","164","240","240","164","158.0083","227.1683","39360","39360","35894.4834","tc","null","null","null","null","null","null","[2,3]"
"","canvas-keyboard-response","64","105588","0.0-6.0-4.9","27","","","","","make choice","1458","2","","","critical","d","t","c","158.0083","227.1683","164","240","240","164","spektor","0.09","h","164","240","240","164","158.0083","227.1683","39360","39360","35894.4834","tc","null","null","null","null","null","null","[2,3]"
"","canvas-keyboard-response","65","105747","0.0-6.0-5.9","27","","","","","clear_screen","null","null","","","critical","d","t","c","158.0083","227.1683","164","240","240","164","spektor","0.09","h","164","240","240","164","158.0083","227.1683","39360","39360","35894.4834","tc","null","null","null","null","null","null","[2,3]"
"","canvas-keyboard-response","66","105948","0.0-6.0-0.10","27","","","","","pre trial waiting period","null","null","","","critical","d","c","t","237.1485","162.6685","164","240","240","164","trueblood","0.02","w","240","164","164","240","237.1485","162.6685","39360","39360","38576.5967","td","null","null","null","null","null","null","[3,1]"
"","canvas-keyboard-response","67","106112","0.0-6.0-1.10","27","","","","","clear_screen","null","null","","","critical","d","c","t","237.1485","162.6685","164","240","240","164","trueblood","0.02","w","240","164","164","240","237.1485","162.6685","39360","39360","38576.5967","td","null","null","null","null","null","null","[3,1]"
"","canvas-keyboard-response","68","107453","0.0-6.0-2.10","27","","","","","rectangles","null","null","","","critical","d","c","t","237.1485","162.6685","164","240","240","164","trueblood","0.02","w","240","164","164","240","237.1485","162.6685","39360","39360","38576.5967","td","null","null","null","null","null","null","[3,1]"
"","canvas-keyboard-response","69","107611","0.0-6.0-3.10","27","","","","","clear_screen","null","null","","","critical","d","c","t","237.1485","162.6685","164","240","240","164","trueblood","0.02","w","240","164","164","240","237.1485","162.6685","39360","39360","38576.5967","td","null","null","null","null","null","null","[3,1]"
"","canvas-keyboard-response","70","108821","0.0-6.0-4.10","27","","","","","make choice","1196","1","","","critical","d","c","t","237.1485","162.6685","164","240","240","164","trueblood","0.02","w","240","164","164","240","237.1485","162.6685","39360","39360","38576.5967","td","null","null","null","null","null","null","[3,1]"
"","canvas-keyboard-response","71","108981","0.0-6.0-5.10","27","","","","","clear_screen","null","null","","","critical","d","c","t","237.1485","162.6685","164","240","240","164","trueblood","0.02","w","240","164","164","240","237.1485","162.6685","39360","39360","38576.5967","td","null","null","null","null","null","null","[3,1]"
"","canvas-keyboard-response","72","109182","0.0-6.0-0.11","27","","","","","pre trial waiting period","null","null","","","critical","t","c","d","240","164","164","240","240","164","spektor","0","w","240","164","164","240","240","164","39360","39360","39360","td","null","null","null","null","null","null","[1,3]"
"","canvas-keyboard-response","73","109348","0.0-6.0-1.11","27","","","","","clear_screen","null","null","","","critical","t","c","d","240","164","164","240","240","164","spektor","0","w","240","164","164","240","240","164","39360","39360","39360","td","null","null","null","null","null","null","[1,3]"
"","canvas-keyboard-response","74","110682","0.0-6.0-2.11","27","","","","","rectangles","null","null","","","critical","t","c","d","240","164","164","240","240","164","spektor","0","w","240","164","164","240","240","164","39360","39360","39360","td","null","null","null","null","null","null","[1,3]"
"","canvas-keyboard-response","75","110841","0.0-6.0-3.11","27","","","","","clear_screen","null","null","","","critical","t","c","d","240","164","164","240","240","164","spektor","0","w","240","164","164","240","240","164","39360","39360","39360","td","null","null","null","null","null","null","[1,3]"
"","canvas-keyboard-response","76","112852","0.0-6.0-4.11","27","","","","","make choice","2002","3","","","critical","t","c","d","240","164","164","240","240","164","spektor","0","w","240","164","164","240","240","164","39360","39360","39360","td","null","null","null","null","null","null","[1,3]"
"","canvas-keyboard-response","77","113013","0.0-6.0-5.11","27","","","","","clear_screen","null","null","","","critical","t","c","d","240","164","164","240","240","164","spektor","0","w","240","164","164","240","240","164","39360","39360","39360","td","null","null","null","null","null","null","[1,3]"
"","canvas-keyboard-response","78","113214","0.0-6.0-0.12","27","","","","","pre trial waiting period","null","null","","","critical","d","t","c","220.0396","154.6796","240","164","164","240","spektor","0.14","w","240","164","164","240","220.0396","154.6796","39360","39360","34035.6388","td","null","null","null","null","null","null","[2,1]"
"","canvas-keyboard-response","79","113374","0.0-6.0-1.12","27","","","","","clear_screen","null","null","","","critical","d","t","c","220.0396","154.6796","240","164","164","240","spektor","0.14","w","240","164","164","240","220.0396","154.6796","39360","39360","34035.6388","td","null","null","null","null","null","null","[2,1]"
"","canvas-keyboard-response","80","114712","0.0-6.0-2.12","27","","","","","rectangles","null","null","","","critical","d","t","c","220.0396","154.6796","240","164","164","240","spektor","0.14","w","240","164","164","240","220.0396","154.6796","39360","39360","34035.6388","td","null","null","null","null","null","null","[2,1]"
"","canvas-keyboard-response","81","114876","0.0-6.0-3.12","27","","","","","clear_screen","null","null","","","critical","d","t","c","220.0396","154.6796","240","164","164","240","spektor","0.14","w","240","164","164","240","220.0396","154.6796","39360","39360","34035.6388","td","null","null","null","null","null","null","[2,1]"
"","canvas-keyboard-response","82","115868","0.0-6.0-4.12","27","","","","","make choice","979","2","","","critical","d","t","c","220.0396","154.6796","240","164","164","240","spektor","0.14","w","240","164","164","240","220.0396","154.6796","39360","39360","34035.6388","td","null","null","null","null","null","null","[2,1]"
"","canvas-keyboard-response","83","116029","0.0-6.0-5.12","27","","","","","clear_screen","null","null","","","critical","d","t","c","220.0396","154.6796","240","164","164","240","spektor","0.14","w","240","164","164","240","220.0396","154.6796","39360","39360","34035.6388","td","null","null","null","null","null","null","[2,1]"
"","canvas-keyboard-response","84","116231","0.0-6.0-0.13","27","","","","","pre trial waiting period","null","null","","","catch","sw","l","sh","180","200","231","266","195","211","trueblood","null","null","null","null","null","null","null","null","null","null","null","","180","200","260","200","36000","52000","[2,3]"
"","canvas-keyboard-response","85","116392","0.0-6.0-1.13","27","","","","","clear_screen","null","null","","","catch","sw","l","sh","180","200","231","266","195","211","trueblood","null","null","null","null","null","null","null","null","null","null","null","","180","200","260","200","36000","52000","[2,3]"
"","canvas-keyboard-response","86","117727","0.0-6.0-2.13","27","","","","","rectangles","null","null","","","catch","sw","l","sh","180","200","231","266","195","211","trueblood","null","null","null","null","null","null","null","null","null","null","null","","180","200","260","200","36000","52000","[2,3]"
"","canvas-keyboard-response","87","117888","0.0-6.0-3.13","27","","","","","clear_screen","null","null","","","catch","sw","l","sh","180","200","231","266","195","211","trueblood","null","null","null","null","null","null","null","null","null","null","null","","180","200","260","200","36000","52000","[2,3]"
"","canvas-keyboard-response","88","119029","0.0-6.0-4.13","27","","","","","make choice","1130","2","","","catch","sw","l","sh","180","200","231","266","195","211","trueblood","null","null","null","null","null","null","null","null","null","null","null","","180","200","260","200","36000","52000","[2,3]"
"","canvas-keyboard-response","89","119189","0.0-6.0-5.13","27","","","","","clear_screen","null","null","","","catch","sw","l","sh","180","200","231","266","195","211","trueblood","null","null","null","null","null","null","null","null","null","null","null","","180","200","260","200","36000","52000","[2,3]"
"","canvas-keyboard-response","90","119390","0.0-6.0-0.14","27","","","","","pre trial waiting period","null","null","","","critical","t","d","c","240","164","232.8713","160.6713","164","240","trueblood","0.05","w","240","164","164","240","232.8713","160.6713","39360","39360","37415.7294","tc","null","null","null","null","null","null","[1,3]"
"","canvas-keyboard-response","91","119550","0.0-6.0-1.14","27","","","","","clear_screen","null","null","","","critical","t","d","c","240","164","232.8713","160.6713","164","240","trueblood","0.05","w","240","164","164","240","232.8713","160.6713","39360","39360","37415.7294","tc","null","null","null","null","null","null","[1,3]"
"","canvas-keyboard-response","92","120888","0.0-6.0-2.14","27","","","","","rectangles","null","null","","","critical","t","d","c","240","164","232.8713","160.6713","164","240","trueblood","0.05","w","240","164","164","240","232.8713","160.6713","39360","39360","37415.7294","tc","null","null","null","null","null","null","[1,3]"
"","canvas-keyboard-response","93","121047","0.0-6.0-3.14","27","","","","","clear_screen","null","null","","","critical","t","d","c","240","164","232.8713","160.6713","164","240","trueblood","0.05","w","240","164","164","240","232.8713","160.6713","39360","39360","37415.7294","tc","null","null","null","null","null","null","[1,3]"
"","canvas-keyboard-response","94","121716","0.0-6.0-4.14","27","","","","","make choice","656","3","","","critical","t","d","c","240","164","232.8713","160.6713","164","240","trueblood","0.05","w","240","164","164","240","232.8713","160.6713","39360","39360","37415.7294","tc","null","null","null","null","null","null","[1,3]"
"","canvas-keyboard-response","95","121875","0.0-6.0-5.14","27","","","","","clear_screen","null","null","","","critical","t","d","c","240","164","232.8713","160.6713","164","240","trueblood","0.05","w","240","164","164","240","232.8713","160.6713","39360","39360","37415.7294","tc","null","null","null","null","null","null","[1,3]"
"","canvas-keyboard-response","96","122077","0.0-6.0-0.15","27","","","","","pre trial waiting period","null","null","","","critical","c","d","t","240","164","158.0083","227.1683","164","240","trueblood","0.09","h","164","240","240","164","158.0083","227.1683","39360","39360","35894.4834","td","null","null","null","null","null","null","[3,2]"
"","canvas-keyboard-response","97","122237","0.0-6.0-1.15","27","","","","","clear_screen","null","null","","","critical","c","d","t","240","164","158.0083","227.1683","164","240","trueblood","0.09","h","164","240","240","164","158.0083","227.1683","39360","39360","35894.4834","td","null","null","null","null","null","null","[3,2]"
"","canvas-keyboard-response","98","123576","0.0-6.0-2.15","27","","","","","rectangles","null","null","","","critical","c","d","t","240","164","158.0083","227.1683","164","240","trueblood","0.09","h","164","240","240","164","158.0083","227.1683","39360","39360","35894.4834","td","null","null","null","null","null","null","[3,2]"
"","canvas-keyboard-response","99","123739","0.0-6.0-3.15","27","","","","","clear_screen","null","null","","","critical","c","d","t","240","164","158.0083","227.1683","164","240","trueblood","0.09","h","164","240","240","164","158.0083","227.1683","39360","39360","35894.4834","td","null","null","null","null","null","null","[3,2]"
"","canvas-keyboard-response","100","125149","0.0-6.0-4.15","27","","","","","make choice","1400","3","","","critical","c","d","t","240","164","158.0083","227.1683","164","240","trueblood","0.09","h","164","240","240","164","158.0083","227.1683","39360","39360","35894.4834","td","null","null","null","null","null","null","[3,2]"
"","canvas-keyboard-response","101","125311","0.0-6.0-5.15","27","","","","","clear_screen","null","null","","","critical","c","d","t","240","164","158.0083","227.1683","164","240","trueblood","0.09","h","164","240","240","164","158.0083","227.1683","39360","39360","35894.4834","td","null","null","null","null","null","null","[3,2]"
"","canvas-keyboard-response","102","125512","0.0-6.0-0.16","27","","","","","pre trial waiting period","null","null","","","catch","sh","l","sw","166","217","233","250","143","184","spektor","null","null","null","null","null","null","null","null","null","null","null","","180","200","260","200","36000","52000","[2,3]"
"","canvas-keyboard-response","103","125672","0.0-6.0-1.16","27","","","","","clear_screen","null","null","","","catch","sh","l","sw","166","217","233","250","143","184","spektor","null","null","null","null","null","null","null","null","null","null","null","","180","200","260","200","36000","52000","[2,3]"
"","canvas-keyboard-response","104","127008","0.0-6.0-2.16","27","","","","","rectangles","null","null","","","catch","sh","l","sw","166","217","233","250","143","184","spektor","null","null","null","null","null","null","null","null","null","null","null","","180","200","260","200","36000","52000","[2,3]"
"","canvas-keyboard-response","105","127172","0.0-6.0-3.16","27","","","","","clear_screen","null","null","","","catch","sh","l","sw","166","217","233","250","143","184","spektor","null","null","null","null","null","null","null","null","null","null","null","","180","200","260","200","36000","52000","[2,3]"
"","canvas-keyboard-response","106","127861","0.0-6.0-4.16","27","","","","","make choice","675","2","","","catch","sh","l","sw","166","217","233","250","143","184","spektor","null","null","null","null","null","null","null","null","null","null","null","","180","200","260","200","36000","52000","[2,3]"
"","canvas-keyboard-response","107","128023","0.0-6.0-5.16","27","","","","","clear_screen","null","null","","","catch","sh","l","sw","166","217","233","250","143","184","spektor","null","null","null","null","null","null","null","null","null","null","null","","180","200","260","200","36000","52000","[2,3]"
"","canvas-keyboard-response","108","128224","0.0-6.0-0.17","27","","","","","pre trial waiting period","null","null","","","critical","t","d","c","240","164","240","164","164","240","trueblood","0","w","240","164","164","240","240","164","39360","39360","39360","dc","null","null","null","null","null","null","[2,3]"
"","canvas-keyboard-response","109","128388","0.0-6.0-1.17","27","","","","","clear_screen","null","null","","","critical","t","d","c","240","164","240","164","164","240","trueblood","0","w","240","164","164","240","240","164","39360","39360","39360","dc","null","null","null","null","null","null","[2,3]"
"","canvas-keyboard-response","110","129724","0.0-6.0-2.17","27","","","","","rectangles","null","null","","","critical","t","d","c","240","164","240","164","164","240","trueblood","0","w","240","164","164","240","240","164","39360","39360","39360","dc","null","null","null","null","null","null","[2,3]"
"","canvas-keyboard-response","111","129888","0.0-6.0-3.17","27","","","","","clear_screen","null","null","","","critical","t","d","c","240","164","240","164","164","240","trueblood","0","w","240","164","164","240","240","164","39360","39360","39360","dc","null","null","null","null","null","null","[2,3]"
"","canvas-keyboard-response","112","131524","0.0-6.0-4.17","27","","","","","make choice","1626","2","","","critical","t","d","c","240","164","240","164","164","240","trueblood","0","w","240","164","164","240","240","164","39360","39360","39360","dc","null","null","null","null","null","null","[2,3]"
"","canvas-keyboard-response","113","131685","0.0-6.0-5.17","27","","","","","clear_screen","null","null","","","critical","t","d","c","240","164","240","164","164","240","trueblood","0","w","240","164","164","240","240","164","39360","39360","39360","dc","null","null","null","null","null","null","[2,3]"
"","canvas-keyboard-response","114","131886","0.0-6.0-0.18","27","","","","","pre trial waiting period","null","null","","","catch","sw","sh","l","180","200","206","157","231","273","spektor","null","null","null","null","null","null","null","null","null","null","null","","180","200","260","200","36000","52000","[2,3]"
"","canvas-keyboard-response","115","132046","0.0-6.0-1.18","27","","","","","clear_screen","null","null","","","catch","sw","sh","l","180","200","206","157","231","273","spektor","null","null","null","null","null","null","null","null","null","null","null","","180","200","260","200","36000","52000","[2,3]"
"","canvas-keyboard-response","116","133385","0.0-6.0-2.18","27","","","","","rectangles","null","null","","","catch","sw","sh","l","180","200","206","157","231","273","spektor","null","null","null","null","null","null","null","null","null","null","null","","180","200","260","200","36000","52000","[2,3]"
"","canvas-keyboard-response","117","133548","0.0-6.0-3.18","27","","","","","clear_screen","null","null","","","catch","sw","sh","l","180","200","206","157","231","273","spektor","null","null","null","null","null","null","null","null","null","null","null","","180","200","260","200","36000","52000","[2,3]"
"","canvas-keyboard-response","118","134093","0.0-6.0-4.18","27","","","","","make choice","531","3","","","catch","sw","sh","l","180","200","206","157","231","273","spektor","null","null","null","null","null","null","null","null","null","null","null","","180","200","260","200","36000","52000","[2,3]"
"","canvas-keyboard-response","119","134253","0.0-6.0-5.18","27","","","","","clear_screen","null","null","","","catch","sw","sh","l","180","200","206","157","231","273","spektor","null","null","null","null","null","null","null","null","null","null","null","","180","200","260","200","36000","52000","[2,3]"
"","canvas-keyboard-response","120","134455","0.0-6.0-0.19","27","","","","","pre trial waiting period","null","null","","","catch","sh","sw","l","197","170","184","210","165","261","spektor","null","null","null","null","null","null","null","null","null","null","null","","180","200","260","200","36000","52000","[2,3]"
"","canvas-keyboard-response","121","134618","0.0-6.0-1.19","27","","","","","clear_screen","null","null","","","catch","sh","sw","l","197","170","184","210","165","261","spektor","null","null","null","null","null","null","null","null","null","null","null","","180","200","260","200","36000","52000","[2,3]"
"","canvas-keyboard-response","122","135957","0.0-6.0-2.19","27","","","","","rectangles","null","null","","","catch","sh","sw","l","197","170","184","210","165","261","spektor","null","null","null","null","null","null","null","null","null","null","null","","180","200","260","200","36000","52000","[2,3]"
"","canvas-keyboard-response","123","136116","0.0-6.0-3.19","27","","","","","clear_screen","null","null","","","catch","sh","sw","l","197","170","184","210","165","261","spektor","null","null","null","null","null","null","null","null","null","null","null","","180","200","260","200","36000","52000","[2,3]"
"","canvas-keyboard-response","124","136716","0.0-6.0-4.19","27","","","","","make choice","587","3","","","catch","sh","sw","l","197","170","184","210","165","261","spektor","null","null","null","null","null","null","null","null","null","null","null","","180","200","260","200","36000","52000","[2,3]"
"","canvas-keyboard-response","125","136877","0.0-6.0-5.19","27","","","","","clear_screen","null","null","","","catch","sh","sw","l","197","170","184","210","165","261","spektor","null","null","null","null","null","null","null","null","null","null","null","","180","200","260","200","36000","52000","[2,3]"
"","canvas-keyboard-response","126","137079","0.0-6.0-0.20","27","","","","","pre trial waiting period","null","null","","","critical","d","t","c","154.6796","220.0396","164","240","240","164","spektor","0.14","h","164","240","240","164","154.6796","220.0396","39360","39360","34035.6388","tc","null","null","null","null","null","null","[2,3]"
"","canvas-keyboard-response","127","137240","0.0-6.0-1.20","27","","","","","clear_screen","null","null","","","critical","d","t","c","154.6796","220.0396","164","240","240","164","spektor","0.14","h","164","240","240","164","154.6796","220.0396","39360","39360","34035.6388","tc","null","null","null","null","null","null","[2,3]"
"","canvas-keyboard-response","128","138576","0.0-6.0-2.20","27","","","","","rectangles","null","null","","","critical","d","t","c","154.6796","220.0396","164","240","240","164","spektor","0.14","h","164","240","240","164","154.6796","220.0396","39360","39360","34035.6388","tc","null","null","null","null","null","null","[2,3]"
"","canvas-keyboard-response","129","138737","0.0-6.0-3.20","27","","","","","clear_screen","null","null","","","critical","d","t","c","154.6796","220.0396","164","240","240","164","spektor","0.14","h","164","240","240","164","154.6796","220.0396","39360","39360","34035.6388","tc","null","null","null","null","null","null","[2,3]"
"","canvas-keyboard-response","130","139995","0.0-6.0-4.20","27","","","","","make choice","1247","2","","","critical","d","t","c","154.6796","220.0396","164","240","240","164","spektor","0.14","h","164","240","240","164","154.6796","220.0396","39360","39360","34035.6388","tc","null","null","null","null","null","null","[2,3]"
"","canvas-keyboard-response","131","140151","0.0-6.0-5.20","27","","","","","clear_screen","null","null","","","critical","d","t","c","154.6796","220.0396","164","240","240","164","spektor","0.14","h","164","240","240","164","154.6796","220.0396","39360","39360","34035.6388","tc","null","null","null","null","null","null","[2,3]"
"","canvas-keyboard-response","132","140357","0.0-6.0-0.21","27","","","","","pre trial waiting period","null","null","","","critical","t","c","d","240","164","164","240","232.8713","160.6713","spektor","0.05","w","240","164","164","240","232.8713","160.6713","39360","39360","37415.7294","tc","null","null","null","null","null","null","[1,2]"
"","canvas-keyboard-response","133","140518","0.0-6.0-1.21","27","","","","","clear_screen","null","null","","","critical","t","c","d","240","164","164","240","232.8713","160.6713","spektor","0.05","w","240","164","164","240","232.8713","160.6713","39360","39360","37415.7294","tc","null","null","null","null","null","null","[1,2]"
"","canvas-keyboard-response","134","141856","0.0-6.0-2.21","27","","","","","rectangles","null","null","","","critical","t","c","d","240","164","164","240","232.8713","160.6713","spektor","0.05","w","240","164","164","240","232.8713","160.6713","39360","39360","37415.7294","tc","null","null","null","null","null","null","[1,2]"
"","canvas-keyboard-response","135","142018","0.0-6.0-3.21","27","","","","","clear_screen","null","null","","","critical","t","c","d","240","164","164","240","232.8713","160.6713","spektor","0.05","w","240","164","164","240","232.8713","160.6713","39360","39360","37415.7294","tc","null","null","null","null","null","null","[1,2]"
"","canvas-keyboard-response","136","142925","0.0-6.0-4.21","27","","","","","make choice","897","2","","","critical","t","c","d","240","164","164","240","232.8713","160.6713","spektor","0.05","w","240","164","164","240","232.8713","160.6713","39360","39360","37415.7294","tc","null","null","null","null","null","null","[1,2]"
"","canvas-keyboard-response","137","143086","0.0-6.0-5.21","27","","","","","clear_screen","null","null","","","critical","t","c","d","240","164","164","240","232.8713","160.6713","spektor","0.05","w","240","164","164","240","232.8713","160.6713","39360","39360","37415.7294","tc","null","null","null","null","null","null","[1,2]"
"","canvas-keyboard-response","138","143289","0.0-6.0-0.22","27","","","","","pre trial waiting period","null","null","","","critical","c","d","t","240","164","158.0083","227.1683","164","240","trueblood","0.09","h","164","240","240","164","158.0083","227.1683","39360","39360","35894.4834","dc","null","null","null","null","null","null","[2,1]"
"","canvas-keyboard-response","139","143449","0.0-6.0-1.22","27","","","","","clear_screen","null","null","","","critical","c","d","t","240","164","158.0083","227.1683","164","240","trueblood","0.09","h","164","240","240","164","158.0083","227.1683","39360","39360","35894.4834","dc","null","null","null","null","null","null","[2,1]"
"","canvas-keyboard-response","140","144789","0.0-6.0-2.22","27","","","","","rectangles","null","null","","","critical","c","d","t","240","164","158.0083","227.1683","164","240","trueblood","0.09","h","164","240","240","164","158.0083","227.1683","39360","39360","35894.4834","dc","null","null","null","null","null","null","[2,1]"
"","canvas-keyboard-response","141","144953","0.0-6.0-3.22","27","","","","","clear_screen","null","null","","","critical","c","d","t","240","164","158.0083","227.1683","164","240","trueblood","0.09","h","164","240","240","164","158.0083","227.1683","39360","39360","35894.4834","dc","null","null","null","null","null","null","[2,1]"
"","canvas-keyboard-response","142","145645","0.0-6.0-4.22","27","","","","","make choice","681","2","","","critical","c","d","t","240","164","158.0083","227.1683","164","240","trueblood","0.09","h","164","240","240","164","158.0083","227.1683","39360","39360","35894.4834","dc","null","null","null","null","null","null","[2,1]"
"","canvas-keyboard-response","143","145804","0.0-6.0-5.22","27","","","","","clear_screen","null","null","","","critical","c","d","t","240","164","158.0083","227.1683","164","240","trueblood","0.09","h","164","240","240","164","158.0083","227.1683","39360","39360","35894.4834","dc","null","null","null","null","null","null","[2,1]"
"","canvas-keyboard-response","144","146006","0.0-6.0-0.23","27","","","","","pre trial waiting period","null","null","","","catch","sw","l","sh","180","200","230","238","165","144","spektor","null","null","null","null","null","null","null","null","null","null","null","","180","200","260","200","36000","52000","[2,3]"
"","canvas-keyboard-response","145","146166","0.0-6.0-1.23","27","","","","","clear_screen","null","null","","","catch","sw","l","sh","180","200","230","238","165","144","spektor","null","null","null","null","null","null","null","null","null","null","null","","180","200","260","200","36000","52000","[2,3]"
"","canvas-keyboard-response","146","147503","0.0-6.0-2.23","27","","","","","rectangles","null","null","","","catch","sw","l","sh","180","200","230","238","165","144","spektor","null","null","null","null","null","null","null","null","null","null","null","","180","200","260","200","36000","52000","[2,3]"
"","canvas-keyboard-response","147","147666","0.0-6.0-3.23","27","","","","","clear_screen","null","null","","","catch","sw","l","sh","180","200","230","238","165","144","spektor","null","null","null","null","null","null","null","null","null","null","null","","180","200","260","200","36000","52000","[2,3]"
"","canvas-keyboard-response","148","148253","0.0-6.0-4.23","27","","","","","make choice","577","2","","","catch","sw","l","sh","180","200","230","238","165","144","spektor","null","null","null","null","null","null","null","null","null","null","null","","180","200","260","200","36000","52000","[2,3]"
"","canvas-keyboard-response","149","148412","0.0-6.0-5.23","27","","","","","clear_screen","null","null","","","catch","sw","l","sh","180","200","230","238","165","144","spektor","null","null","null","null","null","null","null","null","null","null","null","","180","200","260","200","36000","52000","[2,3]"
"","canvas-keyboard-response","150","148614","0.0-6.0-0.24","27","","","","","pre trial waiting period","null","null","","","critical","d","t","c","164","240","164","240","240","164","trueblood","0","h","164","240","240","164","164","240","39360","39360","39360","dc","null","null","null","null","null","null","[1,3]"
"","canvas-keyboard-response","151","148774","0.0-6.0-1.24","27","","","","","clear_screen","null","null","","","critical","d","t","c","164","240","164","240","240","164","trueblood","0","h","164","240","240","164","164","240","39360","39360","39360","dc","null","null","null","null","null","null","[1,3]"
"","canvas-keyboard-response","152","150110","0.0-6.0-2.24","27","","","","","rectangles","null","null","","","critical","d","t","c","164","240","164","240","240","164","trueblood","0","h","164","240","240","164","164","240","39360","39360","39360","dc","null","null","null","null","null","null","[1,3]"
"","canvas-keyboard-response","153","150274","0.0-6.0-3.24","27","","","","","clear_screen","null","null","","","critical","d","t","c","164","240","164","240","240","164","trueblood","0","h","164","240","240","164","164","240","39360","39360","39360","dc","null","null","null","null","null","null","[1,3]"
"","canvas-keyboard-response","154","150734","0.0-6.0-4.24","27","","","","","make choice","449","1","","","critical","d","t","c","164","240","164","240","240","164","trueblood","0","h","164","240","240","164","164","240","39360","39360","39360","dc","null","null","null","null","null","null","[1,3]"
"","canvas-keyboard-response","155","150892","0.0-6.0-5.24","27","","","","","clear_screen","null","null","","","critical","d","t","c","164","240","164","240","240","164","trueblood","0","h","164","240","240","164","164","240","39360","39360","39360","dc","null","null","null","null","null","null","[1,3]"
"","canvas-keyboard-response","156","151094","0.0-6.0-0.25","27","","","","","pre trial waiting period","null","null","","","critical","t","d","c","164","240","162.6685","237.1485","240","164","trueblood","0.02","h","164","240","240","164","162.6685","237.1485","39360","39360","38576.5967","tc","null","null","null","null","null","null","[1,3]"
"","canvas-keyboard-response","157","151254","0.0-6.0-1.25","27","","","","","clear_screen","null","null","","","critical","t","d","c","164","240","162.6685","237.1485","240","164","trueblood","0.02","h","164","240","240","164","162.6685","237.1485","39360","39360","38576.5967","tc","null","null","null","null","null","null","[1,3]"
"","canvas-keyboard-response","158","152593","0.0-6.0-2.25","27","","","","","rectangles","null","null","","","critical","t","d","c","164","240","162.6685","237.1485","240","164","trueblood","0.02","h","164","240","240","164","162.6685","237.1485","39360","39360","38576.5967","tc","null","null","null","null","null","null","[1,3]"
"","canvas-keyboard-response","159","152753","0.0-6.0-3.25","27","","","","","clear_screen","null","null","","","critical","t","d","c","164","240","162.6685","237.1485","240","164","trueblood","0.02","h","164","240","240","164","162.6685","237.1485","39360","39360","38576.5967","tc","null","null","null","null","null","null","[1,3]"
"","canvas-keyboard-response","160","153333","0.0-6.0-4.25","27","","","","","make choice","568","3","","","critical","t","d","c","164","240","162.6685","237.1485","240","164","trueblood","0.02","h","164","240","240","164","162.6685","237.1485","39360","39360","38576.5967","tc","null","null","null","null","null","null","[1,3]"
"","canvas-keyboard-response","161","153490","0.0-6.0-5.25","27","","","","","clear_screen","null","null","","","critical","t","d","c","164","240","162.6685","237.1485","240","164","trueblood","0.02","h","164","240","240","164","162.6685","237.1485","39360","39360","38576.5967","tc","null","null","null","null","null","null","[1,3]"
"","canvas-keyboard-response","162","153692","0.0-6.0-0.26","27","","","","","pre trial waiting period","null","null","","","critical","t","d","c","164","240","154.6796","220.0396","240","164","spektor","0.14","h","164","240","240","164","154.6796","220.0396","39360","39360","34035.6388","td","null","null","null","null","null","null","[1,2]"
"","canvas-keyboard-response","163","153851","0.0-6.0-1.26","27","","","","","clear_screen","null","null","","","critical","t","d","c","164","240","154.6796","220.0396","240","164","spektor","0.14","h","164","240","240","164","154.6796","220.0396","39360","39360","34035.6388","td","null","null","null","null","null","null","[1,2]"
"","canvas-keyboard-response","164","155192","0.0-6.0-2.26","27","","","","","rectangles","null","null","","","critical","t","d","c","164","240","154.6796","220.0396","240","164","spektor","0.14","h","164","240","240","164","154.6796","220.0396","39360","39360","34035.6388","td","null","null","null","null","null","null","[1,2]"
"","canvas-keyboard-response","165","155355","0.0-6.0-3.26","27","","","","","clear_screen","null","null","","","critical","t","d","c","164","240","154.6796","220.0396","240","164","spektor","0.14","h","164","240","240","164","154.6796","220.0396","39360","39360","34035.6388","td","null","null","null","null","null","null","[1,2]"
"","canvas-keyboard-response","166","155780","0.0-6.0-4.26","27","","","","","make choice","416","1","","","critical","t","d","c","164","240","154.6796","220.0396","240","164","spektor","0.14","h","164","240","240","164","154.6796","220.0396","39360","39360","34035.6388","td","null","null","null","null","null","null","[1,2]"
"","canvas-keyboard-response","167","155941","0.0-6.0-5.26","27","","","","","clear_screen","null","null","","","critical","t","d","c","164","240","154.6796","220.0396","240","164","spektor","0.14","h","164","240","240","164","154.6796","220.0396","39360","39360","34035.6388","td","null","null","null","null","null","null","[1,2]"
"","canvas-keyboard-response","168","156144","0.0-6.0-0.27","27","","","","","pre trial waiting period","null","null","","","critical","c","d","t","164","240","220.0396","154.6796","240","164","trueblood","0.14","w","240","164","164","240","220.0396","154.6796","39360","39360","34035.6388","td","null","null","null","null","null","null","[3,2]"
"","canvas-keyboard-response","169","156304","0.0-6.0-1.27","27","","","","","clear_screen","null","null","","","critical","c","d","t","164","240","220.0396","154.6796","240","164","trueblood","0.14","w","240","164","164","240","220.0396","154.6796","39360","39360","34035.6388","td","null","null","null","null","null","null","[3,2]"
"","canvas-keyboard-response","170","157644","0.0-6.0-2.27","27","","","","","rectangles","null","null","","","critical","c","d","t","164","240","220.0396","154.6796","240","164","trueblood","0.14","w","240","164","164","240","220.0396","154.6796","39360","39360","34035.6388","td","null","null","null","null","null","null","[3,2]"
"","canvas-keyboard-response","171","157808","0.0-6.0-3.27","27","","","","","clear_screen","null","null","","","critical","c","d","t","164","240","220.0396","154.6796","240","164","trueblood","0.14","w","240","164","164","240","220.0396","154.6796","39360","39360","34035.6388","td","null","null","null","null","null","null","[3,2]"
"","canvas-keyboard-response","172","158357","0.0-6.0-4.27","27","","","","","make choice","538","3","","","critical","c","d","t","164","240","220.0396","154.6796","240","164","trueblood","0.14","w","240","164","164","240","220.0396","154.6796","39360","39360","34035.6388","td","null","null","null","null","null","null","[3,2]"
"","canvas-keyboard-response","173","158515","0.0-6.0-5.27","27","","","","","clear_screen","null","null","","","critical","c","d","t","164","240","220.0396","154.6796","240","164","trueblood","0.14","w","240","164","164","240","220.0396","154.6796","39360","39360","34035.6388","td","null","null","null","null","null","null","[3,2]"
"","canvas-keyboard-response","174","158715","0.0-6.0-0.28","27","","","","","pre trial waiting period","null","null","","","catch","sw","l","sh","180","200","223","260","227","142","trueblood","null","null","null","null","null","null","null","null","null","null","null","","180","200","260","200","36000","52000","[2,3]"
"","canvas-keyboard-response","175","158875","0.0-6.0-1.28","27","","","","","clear_screen","null","null","","","catch","sw","l","sh","180","200","223","260","227","142","trueblood","null","null","null","null","null","null","null","null","null","null","null","","180","200","260","200","36000","52000","[2,3]"
"","canvas-keyboard-response","176","160211","0.0-6.0-2.28","27","","","","","rectangles","null","null","","","catch","sw","l","sh","180","200","223","260","227","142","trueblood","null","null","null","null","null","null","null","null","null","null","null","","180","200","260","200","36000","52000","[2,3]"
"","canvas-keyboard-response","177","160371","0.0-6.0-3.28","27","","","","","clear_screen","null","null","","","catch","sw","l","sh","180","200","223","260","227","142","trueblood","null","null","null","null","null","null","null","null","null","null","null","","180","200","260","200","36000","52000","[2,3]"
"","canvas-keyboard-response","178","160892","0.0-6.0-4.28","27","","","","","make choice","511","2","","","catch","sw","l","sh","180","200","223","260","227","142","trueblood","null","null","null","null","null","null","null","null","null","null","null","","180","200","260","200","36000","52000","[2,3]"
"","canvas-keyboard-response","179","161053","0.0-6.0-5.28","27","","","","","clear_screen","null","null","","","catch","sw","l","sh","180","200","223","260","227","142","trueblood","null","null","null","null","null","null","null","null","null","null","null","","180","200","260","200","36000","52000","[2,3]"
"","canvas-keyboard-response","180","161255","0.0-6.0-0.29","27","","","","","pre trial waiting period","null","null","","","critical","c","d","t","164","240","227.1683","158.0083","240","164","trueblood","0.09","w","240","164","164","240","227.1683","158.0083","39360","39360","35894.4834","tc","null","null","null","null","null","null","[3,1]"
"","canvas-keyboard-response","181","161416","0.0-6.0-1.29","27","","","","","clear_screen","null","null","","","critical","c","d","t","164","240","227.1683","158.0083","240","164","trueblood","0.09","w","240","164","164","240","227.1683","158.0083","39360","39360","35894.4834","tc","null","null","null","null","null","null","[3,1]"
"","canvas-keyboard-response","182","162756","0.0-6.0-2.29","27","","","","","rectangles","null","null","","","critical","c","d","t","164","240","227.1683","158.0083","240","164","trueblood","0.09","w","240","164","164","240","227.1683","158.0083","39360","39360","35894.4834","tc","null","null","null","null","null","null","[3,1]"
"","canvas-keyboard-response","183","162919","0.0-6.0-3.29","27","","","","","clear_screen","null","null","","","critical","c","d","t","164","240","227.1683","158.0083","240","164","trueblood","0.09","w","240","164","164","240","227.1683","158.0083","39360","39360","35894.4834","tc","null","null","null","null","null","null","[3,1]"
"","canvas-keyboard-response","184","163501","0.0-6.0-4.29","27","","","","","make choice","571","3","","","critical","c","d","t","164","240","227.1683","158.0083","240","164","trueblood","0.09","w","240","164","164","240","227.1683","158.0083","39360","39360","35894.4834","tc","null","null","null","null","null","null","[3,1]"
"","canvas-keyboard-response","185","163661","0.0-6.0-5.29","27","","","","","clear_screen","null","null","","","critical","c","d","t","164","240","227.1683","158.0083","240","164","trueblood","0.09","w","240","164","164","240","227.1683","158.0083","39360","39360","35894.4834","tc","null","null","null","null","null","null","[3,1]"
"","canvas-keyboard-response","186","163863","0.0-6.0-0.30","27","","","","","pre trial waiting period","null","null","","","critical","d","c","t","164","240","240","164","164","240","spektor","0","h","164","240","240","164","164","240","39360","39360","39360","td","null","null","null","null","null","null","[3,1]"
"","canvas-keyboard-response","187","164024","0.0-6.0-1.30","27","","","","","clear_screen","null","null","","","critical","d","c","t","164","240","240","164","164","240","spektor","0","h","164","240","240","164","164","240","39360","39360","39360","td","null","null","null","null","null","null","[3,1]"
"","canvas-keyboard-response","188","165360","0.0-6.0-2.30","27","","","","","rectangles","null","null","","","critical","d","c","t","164","240","240","164","164","240","spektor","0","h","164","240","240","164","164","240","39360","39360","39360","td","null","null","null","null","null","null","[3,1]"
"","canvas-keyboard-response","189","165524","0.0-6.0-3.30","27","","","","","clear_screen","null","null","","","critical","d","c","t","164","240","240","164","164","240","spektor","0","h","164","240","240","164","164","240","39360","39360","39360","td","null","null","null","null","null","null","[3,1]"
"","canvas-keyboard-response","190","166726","0.0-6.0-4.30","27","","","","","make choice","1189","1","","","critical","d","c","t","164","240","240","164","164","240","spektor","0","h","164","240","240","164","164","240","39360","39360","39360","td","null","null","null","null","null","null","[3,1]"
"","canvas-keyboard-response","191","166886","0.0-6.0-5.30","27","","","","","clear_screen","null","null","","","critical","d","c","t","164","240","240","164","164","240","spektor","0","h","164","240","240","164","164","240","39360","39360","39360","td","null","null","null","null","null","null","[3,1]"
"","canvas-keyboard-response","192","167086","0.0-6.0-0.31","27","","","","","pre trial waiting period","null","null","","","critical","c","t","d","240","164","164","240","164","240","trueblood","0","h","164","240","240","164","164","240","39360","39360","39360","tc","null","null","null","null","null","null","[2,1]"
"","canvas-keyboard-response","193","167250","0.0-6.0-1.31","27","","","","","clear_screen","null","null","","","critical","c","t","d","240","164","164","240","164","240","trueblood","0","h","164","240","240","164","164","240","39360","39360","39360","tc","null","null","null","null","null","null","[2,1]"
"","canvas-keyboard-response","194","168587","0.0-6.0-2.31","27","","","","","rectangles","null","null","","","critical","c","t","d","240","164","164","240","164","240","trueblood","0","h","164","240","240","164","164","240","39360","39360","39360","tc","null","null","null","null","null","null","[2,1]"
"","canvas-keyboard-response","195","168746","0.0-6.0-3.31","27","","","","","clear_screen","null","null","","","critical","c","t","d","240","164","164","240","164","240","trueblood","0","h","164","240","240","164","164","240","39360","39360","39360","tc","null","null","null","null","null","null","[2,1]"
"","canvas-keyboard-response","196","169331","0.0-6.0-4.31","27","","","","","make choice","576","1","","","critical","c","t","d","240","164","164","240","164","240","trueblood","0","h","164","240","240","164","164","240","39360","39360","39360","tc","null","null","null","null","null","null","[2,1]"
"","canvas-keyboard-response","197","169489","0.0-6.0-5.31","27","","","","","clear_screen","null","null","","","critical","c","t","d","240","164","164","240","164","240","trueblood","0","h","164","240","240","164","164","240","39360","39360","39360","tc","null","null","null","null","null","null","[2,1]"
"","canvas-keyboard-response","198","169690","0.0-6.0-0.32","27","","","","","pre trial waiting period","null","null","","","critical","c","d","t","164","240","232.8713","160.6713","240","164","spektor","0.05","w","240","164","164","240","232.8713","160.6713","39360","39360","37415.7294","dc","null","null","null","null","null","null","[2,1]"
"","canvas-keyboard-response","199","169851","0.0-6.0-1.32","27","","","","","clear_screen","null","null","","","critical","c","d","t","164","240","232.8713","160.6713","240","164","spektor","0.05","w","240","164","164","240","232.8713","160.6713","39360","39360","37415.7294","dc","null","null","null","null","null","null","[2,1]"
"","canvas-keyboard-response","200","171190","0.0-6.0-2.32","27","","","","","rectangles","null","null","","","critical","c","d","t","164","240","232.8713","160.6713","240","164","spektor","0.05","w","240","164","164","240","232.8713","160.6713","39360","39360","37415.7294","dc","null","null","null","null","null","null","[2,1]"
"","canvas-keyboard-response","201","171350","0.0-6.0-3.32","27","","","","","clear_screen","null","null","","","critical","c","d","t","164","240","232.8713","160.6713","240","164","spektor","0.05","w","240","164","164","240","232.8713","160.6713","39360","39360","37415.7294","dc","null","null","null","null","null","null","[2,1]"
"","canvas-keyboard-response","202","171820","0.0-6.0-4.32","27","","","","","make choice","460","1","","","critical","c","d","t","164","240","232.8713","160.6713","240","164","spektor","0.05","w","240","164","164","240","232.8713","160.6713","39360","39360","37415.7294","dc","null","null","null","null","null","null","[2,1]"
"","canvas-keyboard-response","203","171981","0.0-6.0-5.32","27","","","","","clear_screen","null","null","","","critical","c","d","t","164","240","232.8713","160.6713","240","164","spektor","0.05","w","240","164","164","240","232.8713","160.6713","39360","39360","37415.7294","dc","null","null","null","null","null","null","[2,1]"
"","canvas-keyboard-response","204","172183","0.0-6.0-0.33","27","","","","","pre trial waiting period","null","null","","","catch","sh","l","sw","188","198","232","224","162","196","trueblood","null","null","null","null","null","null","null","null","null","null","null","","180","200","260","200","36000","52000","[2,3]"
"","canvas-keyboard-response","205","172345","0.0-6.0-1.33","27","","","","","clear_screen","null","null","","","catch","sh","l","sw","188","198","232","224","162","196","trueblood","null","null","null","null","null","null","null","null","null","null","null","","180","200","260","200","36000","52000","[2,3]"
"","canvas-keyboard-response","206","173684","0.0-6.0-2.33","27","","","","","rectangles","null","null","","","catch","sh","l","sw","188","198","232","224","162","196","trueblood","null","null","null","null","null","null","null","null","null","null","null","","180","200","260","200","36000","52000","[2,3]"
"","canvas-keyboard-response","207","173848","0.0-6.0-3.33","27","","","","","clear_screen","null","null","","","catch","sh","l","sw","188","198","232","224","162","196","trueblood","null","null","null","null","null","null","null","null","null","null","null","","180","200","260","200","36000","52000","[2,3]"
"","canvas-keyboard-response","208","174364","0.0-6.0-4.33","27","","","","","make choice","507","2","","","catch","sh","l","sw","188","198","232","224","162","196","trueblood","null","null","null","null","null","null","null","null","null","null","null","","180","200","260","200","36000","52000","[2,3]"
"","canvas-keyboard-response","209","174525","0.0-6.0-5.33","27","","","","","clear_screen","null","null","","","catch","sh","l","sw","188","198","232","224","162","196","trueblood","null","null","null","null","null","null","null","null","null","null","null","","180","200","260","200","36000","52000","[2,3]"
"","canvas-keyboard-response","210","174727","0.0-6.0-0.34","27","","","","","pre trial waiting period","null","null","","","catch","sh","sw","l","161","203","175","186","255","210","spektor","null","null","null","null","null","null","null","null","null","null","null","","180","200","260","200","36000","52000","[2,3]"
"","canvas-keyboard-response","211","174887","0.0-6.0-1.34","27","","","","","clear_screen","null","null","","","catch","sh","sw","l","161","203","175","186","255","210","spektor","null","null","null","null","null","null","null","null","null","null","null","","180","200","260","200","36000","52000","[2,3]"
"","canvas-keyboard-response","212","176226","0.0-6.0-2.34","27","","","","","rectangles","null","null","","","catch","sh","sw","l","161","203","175","186","255","210","spektor","null","null","null","null","null","null","null","null","null","null","null","","180","200","260","200","36000","52000","[2,3]"
"","canvas-keyboard-response","213","176385","0.0-6.0-3.34","27","","","","","clear_screen","null","null","","","catch","sh","sw","l","161","203","175","186","255","210","spektor","null","null","null","null","null","null","null","null","null","null","null","","180","200","260","200","36000","52000","[2,3]"
"","canvas-keyboard-response","214","176749","0.0-6.0-4.34","27","","","","","make choice","353","3","","","catch","sh","sw","l","161","203","175","186","255","210","spektor","null","null","null","null","null","null","null","null","null","null","null","","180","200","260","200","36000","52000","[2,3]"
"","canvas-keyboard-response","215","176907","0.0-6.0-5.34","27","","","","","clear_screen","null","null","","","catch","sh","sw","l","161","203","175","186","255","210","spektor","null","null","null","null","null","null","null","null","null","null","null","","180","200","260","200","36000","52000","[2,3]"
"","canvas-keyboard-response","216","177108","0.0-6.0-0.35","27","","","","","pre trial waiting period","null","null","","","critical","c","d","t","164","240","220.0396","154.6796","240","164","spektor","0.14","w","240","164","164","240","220.0396","154.6796","39360","39360","34035.6388","dc","null","null","null","null","null","null","[2,1]"
"","canvas-keyboard-response","217","177272","0.0-6.0-1.35","27","","","","","clear_screen","null","null","","","critical","c","d","t","164","240","220.0396","154.6796","240","164","spektor","0.14","w","240","164","164","240","220.0396","154.6796","39360","39360","34035.6388","dc","null","null","null","null","null","null","[2,1]"
"","canvas-keyboard-response","218","178612","0.0-6.0-2.35","27","","","","","rectangles","null","null","","","critical","c","d","t","164","240","220.0396","154.6796","240","164","spektor","0.14","w","240","164","164","240","220.0396","154.6796","39360","39360","34035.6388","dc","null","null","null","null","null","null","[2,1]"
"","canvas-keyboard-response","219","178775","0.0-6.0-3.35","27","","","","","clear_screen","null","null","","","critical","c","d","t","164","240","220.0396","154.6796","240","164","spektor","0.14","w","240","164","164","240","220.0396","154.6796","39360","39360","34035.6388","dc","null","null","null","null","null","null","[2,1]"
"","canvas-keyboard-response","220","179284","0.0-6.0-4.35","27","","","","","make choice","496","1","","","critical","c","d","t","164","240","220.0396","154.6796","240","164","spektor","0.14","w","240","164","164","240","220.0396","154.6796","39360","39360","34035.6388","dc","null","null","null","null","null","null","[2,1]"
"","canvas-keyboard-response","221","179445","0.0-6.0-5.35","27","","","","","clear_screen","null","null","","","critical","c","d","t","164","240","220.0396","154.6796","240","164","spektor","0.14","w","240","164","164","240","220.0396","154.6796","39360","39360","34035.6388","dc","null","null","null","null","null","null","[2,1]"
"","canvas-keyboard-response","222","179646","0.0-6.0-0.36","27","","","","","pre trial waiting period","null","null","","","critical","t","c","d","164","240","240","164","160.6713","232.8713","trueblood","0.05","h","164","240","240","164","160.6713","232.8713","39360","39360","37415.7294","td","null","null","null","null","null","null","[1,3]"
"","canvas-keyboard-response","223","179807","0.0-6.0-1.36","27","","","","","clear_screen","null","null","","","critical","t","c","d","164","240","240","164","160.6713","232.8713","trueblood","0.05","h","164","240","240","164","160.6713","232.8713","39360","39360","37415.7294","td","null","null","null","null","null","null","[1,3]"
"","canvas-keyboard-response","224","181144","0.0-6.0-2.36","27","","","","","rectangles","null","null","","","critical","t","c","d","164","240","240","164","160.6713","232.8713","trueblood","0.05","h","164","240","240","164","160.6713","232.8713","39360","39360","37415.7294","td","null","null","null","null","null","null","[1,3]"
"","canvas-keyboard-response","225","181308","0.0-6.0-3.36","27","","","","","clear_screen","null","null","","","critical","t","c","d","164","240","240","164","160.6713","232.8713","trueblood","0.05","h","164","240","240","164","160.6713","232.8713","39360","39360","37415.7294","td","null","null","null","null","null","null","[1,3]"
"","canvas-keyboard-response","226","182652","0.0-6.0-4.36","27","","","","","make choice","1333","3","","","critical","t","c","d","164","240","240","164","160.6713","232.8713","trueblood","0.05","h","164","240","240","164","160.6713","232.8713","39360","39360","37415.7294","td","null","null","null","null","null","null","[1,3]"
"","canvas-keyboard-response","227","182813","0.0-6.0-5.36","27","","","","","clear_screen","null","null","","","critical","t","c","d","164","240","240","164","160.6713","232.8713","trueblood","0.05","h","164","240","240","164","160.6713","232.8713","39360","39360","37415.7294","td","null","null","null","null","null","null","[1,3]"
"","canvas-keyboard-response","228","183014","0.0-6.0-0.37","27","","","","","pre trial waiting period","null","null","","","catch","l","sw","sh","236","237","215","197","175","164","trueblood","null","null","null","null","null","null","null","null","null","null","null","","180","200","260","200","36000","52000","[1,3]"
"","canvas-keyboard-response","229","183180","0.0-6.0-1.37","27","","","","","clear_screen","null","null","","","catch","l","sw","sh","236","237","215","197","175","164","trueblood","null","null","null","null","null","null","null","null","null","null","null","","180","200","260","200","36000","52000","[1,3]"
"","canvas-keyboard-response","230","184516","0.0-6.0-2.37","27","","","","","rectangles","null","null","","","catch","l","sw","sh","236","237","215","197","175","164","trueblood","null","null","null","null","null","null","null","null","null","null","null","","180","200","260","200","36000","52000","[1,3]"
"","canvas-keyboard-response","231","184676","0.0-6.0-3.37","27","","","","","clear_screen","null","null","","","catch","l","sw","sh","236","237","215","197","175","164","trueblood","null","null","null","null","null","null","null","null","null","null","null","","180","200","260","200","36000","52000","[1,3]"
"","canvas-keyboard-response","232","185013","0.0-6.0-4.37","27","","","","","make choice","326","1","","","catch","l","sw","sh","236","237","215","197","175","164","trueblood","null","null","null","null","null","null","null","null","null","null","null","","180","200","260","200","36000","52000","[1,3]"
"","canvas-keyboard-response","233","185173","0.0-6.0-5.37","27","","","","","clear_screen","null","null","","","catch","l","sw","sh","236","237","215","197","175","164","trueblood","null","null","null","null","null","null","null","null","null","null","null","","180","200","260","200","36000","52000","[1,3]"
"","canvas-keyboard-response","234","185374","0.0-6.0-0.38","27","","","","","pre trial waiting period","null","null","","","critical","c","t","d","240","164","164","240","164","240","spektor","0","h","164","240","240","164","164","240","39360","39360","39360","dc","null","null","null","null","null","null","[3,1]"
"","canvas-keyboard-response","235","185534","0.0-6.0-1.38","27","","","","","clear_screen","null","null","","","critical","c","t","d","240","164","164","240","164","240","spektor","0","h","164","240","240","164","164","240","39360","39360","39360","dc","null","null","null","null","null","null","[3,1]"
"","canvas-keyboard-response","236","186869","0.0-6.0-2.38","27","","","","","rectangles","null","null","","","critical","c","t","d","240","164","164","240","164","240","spektor","0","h","164","240","240","164","164","240","39360","39360","39360","dc","null","null","null","null","null","null","[3,1]"
"","canvas-keyboard-response","237","187032","0.0-6.0-3.38","27","","","","","clear_screen","null","null","","","critical","c","t","d","240","164","164","240","164","240","spektor","0","h","164","240","240","164","164","240","39360","39360","39360","dc","null","null","null","null","null","null","[3,1]"
"","canvas-keyboard-response","238","187965","0.0-6.0-4.38","27","","","","","make choice","922","3","","","critical","c","t","d","240","164","164","240","164","240","spektor","0","h","164","240","240","164","164","240","39360","39360","39360","dc","null","null","null","null","null","null","[3,1]"
"","canvas-keyboard-response","239","188124","0.0-6.0-5.38","27","","","","","clear_screen","null","null","","","critical","c","t","d","240","164","164","240","164","240","spektor","0","h","164","240","240","164","164","240","39360","39360","39360","dc","null","null","null","null","null","null","[3,1]"
"","canvas-keyboard-response","240","188325","0.0-6.0-0.39","27","","","","","pre trial waiting period","null","null","","","critical","d","t","c","158.0083","227.1683","164","240","240","164","spektor","0.09","h","164","240","240","164","158.0083","227.1683","39360","39360","35894.4834","dc","null","null","null","null","null","null","[1,3]"
"","canvas-keyboard-response","241","188488","0.0-6.0-1.39","27","","","","","clear_screen","null","null","","","critical","d","t","c","158.0083","227.1683","164","240","240","164","spektor","0.09","h","164","240","240","164","158.0083","227.1683","39360","39360","35894.4834","dc","null","null","null","null","null","null","[1,3]"
"","canvas-keyboard-response","242","189824","0.0-6.0-2.39","27","","","","","rectangles","null","null","","","critical","d","t","c","158.0083","227.1683","164","240","240","164","spektor","0.09","h","164","240","240","164","158.0083","227.1683","39360","39360","35894.4834","dc","null","null","null","null","null","null","[1,3]"
"","canvas-keyboard-response","243","189984","0.0-6.0-3.39","27","","","","","clear_screen","null","null","","","critical","d","t","c","158.0083","227.1683","164","240","240","164","spektor","0.09","h","164","240","240","164","158.0083","227.1683","39360","39360","35894.4834","dc","null","null","null","null","null","null","[1,3]"
"","canvas-keyboard-response","244","190956","0.0-6.0-4.39","27","","","","","make choice","965","3","","","critical","d","t","c","158.0083","227.1683","164","240","240","164","spektor","0.09","h","164","240","240","164","158.0083","227.1683","39360","39360","35894.4834","dc","null","null","null","null","null","null","[1,3]"
"","canvas-keyboard-response","245","191115","0.0-6.0-5.39","27","","","","","clear_screen","null","null","","","critical","d","t","c","158.0083","227.1683","164","240","240","164","spektor","0.09","h","164","240","240","164","158.0083","227.1683","39360","39360","35894.4834","dc","null","null","null","null","null","null","[1,3]"
"","canvas-keyboard-response","246","191317","0.0-6.0-0.40","27","","","","","pre trial waiting period","null","null","","","critical","d","c","t","232.8713","160.6713","164","240","240","164","trueblood","0.05","w","240","164","164","240","232.8713","160.6713","39360","39360","37415.7294","td","null","null","null","null","null","null","[3,1]"
"","canvas-keyboard-response","247","191481","0.0-6.0-1.40","27","","","","","clear_screen","null","null","","","critical","d","c","t","232.8713","160.6713","164","240","240","164","trueblood","0.05","w","240","164","164","240","232.8713","160.6713","39360","39360","37415.7294","td","null","null","null","null","null","null","[3,1]"
"","canvas-keyboard-response","248","192817","0.0-6.0-2.40","27","","","","","rectangles","null","null","","","critical","d","c","t","232.8713","160.6713","164","240","240","164","trueblood","0.05","w","240","164","164","240","232.8713","160.6713","39360","39360","37415.7294","td","null","null","null","null","null","null","[3,1]"
"","canvas-keyboard-response","249","192981","0.0-6.0-3.40","27","","","","","clear_screen","null","null","","","critical","d","c","t","232.8713","160.6713","164","240","240","164","trueblood","0.05","w","240","164","164","240","232.8713","160.6713","39360","39360","37415.7294","td","null","null","null","null","null","null","[3,1]"
"","canvas-keyboard-response","250","193453","0.0-6.0-4.40","27","","","","","make choice","458","1","","","critical","d","c","t","232.8713","160.6713","164","240","240","164","trueblood","0.05","w","240","164","164","240","232.8713","160.6713","39360","39360","37415.7294","td","null","null","null","null","null","null","[3,1]"
"","canvas-keyboard-response","251","193611","0.0-6.0-5.40","27","","","","","clear_screen","null","null","","","critical","d","c","t","232.8713","160.6713","164","240","240","164","trueblood","0.05","w","240","164","164","240","232.8713","160.6713","39360","39360","37415.7294","td","null","null","null","null","null","null","[3,1]"
"","canvas-keyboard-response","252","193813","0.0-6.0-0.41","27","","","","","pre trial waiting period","null","null","","","catch","l","sw","sh","297","225","203","214","188","140","trueblood","null","null","null","null","null","null","null","null","null","null","null","","180","200","260","200","36000","52000","[1,2]"
"","canvas-keyboard-response","253","193976","0.0-6.0-1.41","27","","","","","clear_screen","null","null","","","catch","l","sw","sh","297","225","203","214","188","140","trueblood","null","null","null","null","null","null","null","null","null","null","null","","180","200","260","200","36000","52000","[1,2]"
"","canvas-keyboard-response","254","195315","0.0-6.0-2.41","27","","","","","rectangles","null","null","","","catch","l","sw","sh","297","225","203","214","188","140","trueblood","null","null","null","null","null","null","null","null","null","null","null","","180","200","260","200","36000","52000","[1,2]"
"","canvas-keyboard-response","255","195478","0.0-6.0-3.41","27","","","","","clear_screen","null","null","","","catch","l","sw","sh","297","225","203","214","188","140","trueblood","null","null","null","null","null","null","null","null","null","null","null","","180","200","260","200","36000","52000","[1,2]"
"","canvas-keyboard-response","256","195964","0.0-6.0-4.41","27","","","","","make choice","476","1","","","catch","l","sw","sh","297","225","203","214","188","140","trueblood","null","null","null","null","null","null","null","null","null","null","null","","180","200","260","200","36000","52000","[1,2]"
"","canvas-keyboard-response","257","196125","0.0-6.0-5.41","27","","","","","clear_screen","null","null","","","catch","l","sw","sh","297","225","203","214","188","140","trueblood","null","null","null","null","null","null","null","null","null","null","null","","180","200","260","200","36000","52000","[1,2]"
"","canvas-keyboard-response","258","196327","0.0-6.0-0.42","27","","","","","pre trial waiting period","null","null","","","catch","sh","sw","l","221","202","182","215","280","160","spektor","null","null","null","null","null","null","null","null","null","null","null","","180","200","260","200","36000","52000","[2,3]"
"","canvas-keyboard-response","259","196489","0.0-6.0-1.42","27","","","","","clear_screen","null","null","","","catch","sh","sw","l","221","202","182","215","280","160","spektor","null","null","null","null","null","null","null","null","null","null","null","","180","200","260","200","36000","52000","[2,3]"
"","canvas-keyboard-response","260","197826","0.0-6.0-2.42","27","","","","","rectangles","null","null","","","catch","sh","sw","l","221","202","182","215","280","160","spektor","null","null","null","null","null","null","null","null","null","null","null","","180","200","260","200","36000","52000","[2,3]"
"","canvas-keyboard-response","261","197989","0.0-6.0-3.42","27","","","","","clear_screen","null","null","","","catch","sh","sw","l","221","202","182","215","280","160","spektor","null","null","null","null","null","null","null","null","null","null","null","","180","200","260","200","36000","52000","[2,3]"
"","canvas-keyboard-response","262","199868","0.0-6.0-4.42","27","","","","","make choice","1872","2","","","catch","sh","sw","l","221","202","182","215","280","160","spektor","null","null","null","null","null","null","null","null","null","null","null","","180","200","260","200","36000","52000","[2,3]"
"","canvas-keyboard-response","263","200028","0.0-6.0-5.42","27","","","","","clear_screen","null","null","","","catch","sh","sw","l","221","202","182","215","280","160","spektor","null","null","null","null","null","null","null","null","null","null","null","","180","200","260","200","36000","52000","[2,3]"
"","canvas-keyboard-response","264","200228","0.0-6.0-0.43","27","","","","","pre trial waiting period","null","null","","","critical","d","t","c","227.1683","158.0083","240","164","164","240","spektor","0.09","w","240","164","164","240","227.1683","158.0083","39360","39360","35894.4834","tc","null","null","null","null","null","null","[2,3]"
"","canvas-keyboard-response","265","200389","0.0-6.0-1.43","27","","","","","clear_screen","null","null","","","critical","d","t","c","227.1683","158.0083","240","164","164","240","spektor","0.09","w","240","164","164","240","227.1683","158.0083","39360","39360","35894.4834","tc","null","null","null","null","null","null","[2,3]"
"","canvas-keyboard-response","266","201725","0.0-6.0-2.43","27","","","","","rectangles","null","null","","","critical","d","t","c","227.1683","158.0083","240","164","164","240","spektor","0.09","w","240","164","164","240","227.1683","158.0083","39360","39360","35894.4834","tc","null","null","null","null","null","null","[2,3]"
"","canvas-keyboard-response","267","201885","0.0-6.0-3.43","27","","","","","clear_screen","null","null","","","critical","d","t","c","227.1683","158.0083","240","164","164","240","spektor","0.09","w","240","164","164","240","227.1683","158.0083","39360","39360","35894.4834","tc","null","null","null","null","null","null","[2,3]"
"","canvas-keyboard-response","268","202236","0.0-6.0-4.43","27","","","","","make choice","337","3","","","critical","d","t","c","227.1683","158.0083","240","164","164","240","spektor","0.09","w","240","164","164","240","227.1683","158.0083","39360","39360","35894.4834","tc","null","null","null","null","null","null","[2,3]"
"","canvas-keyboard-response","269","202394","0.0-6.0-5.43","27","","","","","clear_screen","null","null","","","critical","d","t","c","227.1683","158.0083","240","164","164","240","spektor","0.09","w","240","164","164","240","227.1683","158.0083","39360","39360","35894.4834","tc","null","null","null","null","null","null","[2,3]"
"","canvas-keyboard-response","270","202596","0.0-6.0-0.44","27","","","","","pre trial waiting period","null","null","","","catch","l","sw","sh","220","211","199","179","234","180","trueblood","null","null","null","null","null","null","null","null","null","null","null","","180","200","260","200","36000","52000","[1,3]"
"","canvas-keyboard-response","271","202760","0.0-6.0-1.44","27","","","","","clear_screen","null","null","","","catch","l","sw","sh","220","211","199","179","234","180","trueblood","null","null","null","null","null","null","null","null","null","null","null","","180","200","260","200","36000","52000","[1,3]"
"","canvas-keyboard-response","272","204100","0.0-6.0-2.44","27","","","","","rectangles","null","null","","","catch","l","sw","sh","220","211","199","179","234","180","trueblood","null","null","null","null","null","null","null","null","null","null","null","","180","200","260","200","36000","52000","[1,3]"
"","canvas-keyboard-response","273","204263","0.0-6.0-3.44","27","","","","","clear_screen","null","null","","","catch","l","sw","sh","220","211","199","179","234","180","trueblood","null","null","null","null","null","null","null","null","null","null","null","","180","200","260","200","36000","52000","[1,3]"
"","canvas-keyboard-response","274","206743","0.0-6.0-4.44","27","","","","","make choice","2468","1","","","catch","l","sw","sh","220","211","199","179","234","180","trueblood","null","null","null","null","null","null","null","null","null","null","null","","180","200","260","200","36000","52000","[1,3]"
"","canvas-keyboard-response","275","206902","0.0-6.0-5.44","27","","","","","clear_screen","null","null","","","catch","l","sw","sh","220","211","199","179","234","180","trueblood","null","null","null","null","null","null","null","null","null","null","null","","180","200","260","200","36000","52000","[1,3]"
"","canvas-keyboard-response","276","207108","0.0-6.0-0.45","27","","","","","pre trial waiting period","null","null","","","critical","c","t","d","164","240","240","164","237.1485","162.6685","spektor","0.02","w","240","164","164","240","237.1485","162.6685","39360","39360","38576.5967","td","null","null","null","null","null","null","[2,3]"
"","canvas-keyboard-response","277","207273","0.0-6.0-1.45","27","","","","","clear_screen","null","null","","","critical","c","t","d","164","240","240","164","237.1485","162.6685","spektor","0.02","w","240","164","164","240","237.1485","162.6685","39360","39360","38576.5967","td","null","null","null","null","null","null","[2,3]"
"","canvas-keyboard-response","278","208613","0.0-6.0-2.45","27","","","","","rectangles","null","null","","","critical","c","t","d","164","240","240","164","237.1485","162.6685","spektor","0.02","w","240","164","164","240","237.1485","162.6685","39360","39360","38576.5967","td","null","null","null","null","null","null","[2,3]"
"","canvas-keyboard-response","279","208773","0.0-6.0-3.45","27","","","","","clear_screen","null","null","","","critical","c","t","d","164","240","240","164","237.1485","162.6685","spektor","0.02","w","240","164","164","240","237.1485","162.6685","39360","39360","38576.5967","td","null","null","null","null","null","null","[2,3]"
"","canvas-keyboard-response","280","209964","0.0-6.0-4.45","27","","","","","make choice","1178","2","","","critical","c","t","d","164","240","240","164","237.1485","162.6685","spektor","0.02","w","240","164","164","240","237.1485","162.6685","39360","39360","38576.5967","td","null","null","null","null","null","null","[2,3]"
"","canvas-keyboard-response","281","210126","0.0-6.0-5.45","27","","","","","clear_screen","null","null","","","critical","c","t","d","164","240","240","164","237.1485","162.6685","spektor","0.02","w","240","164","164","240","237.1485","162.6685","39360","39360","38576.5967","td","null","null","null","null","null","null","[2,3]"
"","canvas-keyboard-response","282","210329","0.0-6.0-0.46","27","","","","","pre trial waiting period","null","null","","","critical","t","c","d","164","240","240","164","162.6685","237.1485","spektor","0.02","h","164","240","240","164","162.6685","237.1485","39360","39360","38576.5967","td","null","null","null","null","null","null","[1,3]"
"","canvas-keyboard-response","283","210489","0.0-6.0-1.46","27","","","","","clear_screen","null","null","","","critical","t","c","d","164","240","240","164","162.6685","237.1485","spektor","0.02","h","164","240","240","164","162.6685","237.1485","39360","39360","38576.5967","td","null","null","null","null","null","null","[1,3]"
"","canvas-keyboard-response","284","211829","0.0-6.0-2.46","27","","","","","rectangles","null","null","","","critical","t","c","d","164","240","240","164","162.6685","237.1485","spektor","0.02","h","164","240","240","164","162.6685","237.1485","39360","39360","38576.5967","td","null","null","null","null","null","null","[1,3]"
"","canvas-keyboard-response","285","211992","0.0-6.0-3.46","27","","","","","clear_screen","null","null","","","critical","t","c","d","164","240","240","164","162.6685","237.1485","spektor","0.02","h","164","240","240","164","162.6685","237.1485","39360","39360","38576.5967","td","null","null","null","null","null","null","[1,3]"
"","canvas-keyboard-response","286","214285","0.0-6.0-4.46","27","","","","","make choice","2280","3","","","critical","t","c","d","164","240","240","164","162.6685","237.1485","spektor","0.02","h","164","240","240","164","162.6685","237.1485","39360","39360","38576.5967","td","null","null","null","null","null","null","[1,3]"
"","canvas-keyboard-response","287","214445","0.0-6.0-5.46","27","","","","","clear_screen","null","null","","","critical","t","c","d","164","240","240","164","162.6685","237.1485","spektor","0.02","h","164","240","240","164","162.6685","237.1485","39360","39360","38576.5967","td","null","null","null","null","null","null","[1,3]"
"","canvas-keyboard-response","288","214647","0.0-6.0-0.47","27","","","","","pre trial waiting period","null","null","","","critical","d","t","c","154.6796","220.0396","164","240","240","164","trueblood","0.14","h","164","240","240","164","154.6796","220.0396","39360","39360","34035.6388","dc","null","null","null","null","null","null","[1,3]"
"","canvas-keyboard-response","289","214807","0.0-6.0-1.47","27","","","","","clear_screen","null","null","","","critical","d","t","c","154.6796","220.0396","164","240","240","164","trueblood","0.14","h","164","240","240","164","154.6796","220.0396","39360","39360","34035.6388","dc","null","null","null","null","null","null","[1,3]"
"","canvas-keyboard-response","290","216148","0.0-6.0-2.47","27","","","","","rectangles","null","null","","","critical","d","t","c","154.6796","220.0396","164","240","240","164","trueblood","0.14","h","164","240","240","164","154.6796","220.0396","39360","39360","34035.6388","dc","null","null","null","null","null","null","[1,3]"
"","canvas-keyboard-response","291","216312","0.0-6.0-3.47","27","","","","","clear_screen","null","null","","","critical","d","t","c","154.6796","220.0396","164","240","240","164","trueblood","0.14","h","164","240","240","164","154.6796","220.0396","39360","39360","34035.6388","dc","null","null","null","null","null","null","[1,3]"
"","canvas-keyboard-response","292","217661","0.0-6.0-4.47","27","","","","","make choice","1338","1","","","critical","d","t","c","154.6796","220.0396","164","240","240","164","trueblood","0.14","h","164","240","240","164","154.6796","220.0396","39360","39360","34035.6388","dc","null","null","null","null","null","null","[1,3]"
"","canvas-keyboard-response","293","217822","0.0-6.0-5.47","27","","","","","clear_screen","null","null","","","critical","d","t","c","154.6796","220.0396","164","240","240","164","trueblood","0.14","h","164","240","240","164","154.6796","220.0396","39360","39360","34035.6388","dc","null","null","null","null","null","null","[1,3]"
"","canvas-keyboard-response","294","218023","0.0-6.0-0.48","27","","","","","pre trial waiting period","null","null","","","catch","sh","l","sw","235","200","186","244","144","216","trueblood","null","null","null","null","null","null","null","null","null","null","null","","180","200","260","200","36000","52000","[2,3]"
"","canvas-keyboard-response","295","218184","0.0-6.0-1.48","27","","","","","clear_screen","null","null","","","catch","sh","l","sw","235","200","186","244","144","216","trueblood","null","null","null","null","null","null","null","null","null","null","null","","180","200","260","200","36000","52000","[2,3]"
"","canvas-keyboard-response","296","219522","0.0-6.0-2.48","27","","","","","rectangles","null","null","","","catch","sh","l","sw","235","200","186","244","144","216","trueblood","null","null","null","null","null","null","null","null","null","null","null","","180","200","260","200","36000","52000","[2,3]"
"","canvas-keyboard-response","297","219681","0.0-6.0-3.48","27","","","","","clear_screen","null","null","","","catch","sh","l","sw","235","200","186","244","144","216","trueblood","null","null","null","null","null","null","null","null","null","null","null","","180","200","260","200","36000","52000","[2,3]"
"","canvas-keyboard-response","298","220652","0.0-6.0-4.48","27","","","","","make choice","962","2","","","catch","sh","l","sw","235","200","186","244","144","216","trueblood","null","null","null","null","null","null","null","null","null","null","null","","180","200","260","200","36000","52000","[2,3]"
"","canvas-keyboard-response","299","220816","0.0-6.0-5.48","27","","","","","clear_screen","null","null","","","catch","sh","l","sw","235","200","186","244","144","216","trueblood","null","null","null","null","null","null","null","null","null","null","null","","180","200","260","200","36000","52000","[2,3]"
"","canvas-keyboard-response","300","221017","0.0-6.0-0.49","27","","","","","pre trial waiting period","null","null","","","critical","d","c","t","240","164","164","240","240","164","spektor","0","w","240","164","164","240","240","164","39360","39360","39360","dc","null","null","null","null","null","null","[1,2]"
"","canvas-keyboard-response","301","221179","0.0-6.0-1.49","27","","","","","clear_screen","null","null","","","critical","d","c","t","240","164","164","240","240","164","spektor","0","w","240","164","164","240","240","164","39360","39360","39360","dc","null","null","null","null","null","null","[1,2]"
"","canvas-keyboard-response","302","222516","0.0-6.0-2.49","27","","","","","rectangles","null","null","","","critical","d","c","t","240","164","164","240","240","164","spektor","0","w","240","164","164","240","240","164","39360","39360","39360","dc","null","null","null","null","null","null","[1,2]"
"","canvas-keyboard-response","303","222677","0.0-6.0-3.49","27","","","","","clear_screen","null","null","","","critical","d","c","t","240","164","164","240","240","164","spektor","0","w","240","164","164","240","240","164","39360","39360","39360","dc","null","null","null","null","null","null","[1,2]"
"","canvas-keyboard-response","304","223924","0.0-6.0-4.49","27","","","","","make choice","1234","2","","","critical","d","c","t","240","164","164","240","240","164","spektor","0","w","240","164","164","240","240","164","39360","39360","39360","dc","null","null","null","null","null","null","[1,2]"
"","canvas-keyboard-response","305","224085","0.0-6.0-5.49","27","","","","","clear_screen","null","null","","","critical","d","c","t","240","164","164","240","240","164","spektor","0","w","240","164","164","240","240","164","39360","39360","39360","dc","null","null","null","null","null","null","[1,2]"
"","canvas-keyboard-response","306","224287","0.0-6.0-0.50","27","","","","","pre trial waiting period","null","null","","","catch","l","sw","sh","165","265","149","202","186","218","trueblood","null","null","null","null","null","null","null","null","null","null","null","","180","200","260","200","36000","52000","[1,3]"
"","canvas-keyboard-response","307","224450","0.0-6.0-1.50","27","","","","","clear_screen","null","null","","","catch","l","sw","sh","165","265","149","202","186","218","trueblood","null","null","null","null","null","null","null","null","null","null","null","","180","200","260","200","36000","52000","[1,3]"
