success,trial_type,trial_index,time_elapsed,internal_node_id,sub_n,timeout,failed_images,failed_audio,failed_video,screen_id,rt,response,stimulus,view_history,trial,r1,r2,r3,w1,h1,w2,h2,w3,h3,display,tdd,tdo,tw,th,cw,ch,dw,dh,ta,ca,da,probe,csls,csss,clls,clss,sa,la,probe_rects
TRUE,fullscreen,0,4280,0.0-0.0,5015,NA,NA,NA,NA,NA,NA,NA,NA,NA,NA,NA,NA,NA,NA,NA,NA,NA,NA,NA,NA,NA,NA,NA,NA,NA,NA,NA,NA,NA,NA,NA,NA,NA,NA,NA,NA,NA,NA,NA
TRUE,preload,1,4296,0.0-1.0,5015,FALSE,NA,NA,NA,img preload,NA,NA,NA,NA,NA,NA,NA,NA,NA,NA,NA,NA,NA,NA,NA,NA,NA,NA,NA,NA,NA,NA,NA,NA,NA,NA,NA,NA,NA,NA,NA,NA,NA,NA
NA,survey-html-form,2,31247,0.0-2.0,5015,NA,NA,NA,NA,enter-sub-number,26943,"{""response"":""07""}",NA,NA,NA,NA,NA,NA,NA,NA,NA,NA,NA,NA,NA,NA,NA,NA,NA,NA,NA,NA,NA,NA,NA,NA,NA,NA,NA,NA,NA,NA,NA,NA
NA,image-button-response,3,33842,0.0-3.0,5015,NA,NA,NA,NA,NA,2531,0,consent.png,NA,NA,NA,NA,NA,NA,NA,NA,NA,NA,NA,NA,NA,NA,NA,NA,NA,NA,NA,NA,NA,NA,NA,NA,NA,NA,NA,NA,NA,NA,NA
NA,html-button-response,4,36441,0.0-4.0,5015,NA,NA,NA,NA,intro mssg,2595,0,"<div style= ""font-size:25px;"" <p> <strong> Welcome! </strong><br> <p style=""color:#8B0000; font-size:25px;""><strong> Please do NOT exit full screen until you are done with the experiment. </strong> </p><p style=""font-size:25px;color:#8B0000;""> <strong> Your data will be lost <br> if you try to go back or refresh the page after the experiment starts. Feel free to click ""previous"" during the instructions, however.</strong> </p><br><p> <strong> Thanks in advance for your contribution to our research! </strong></p>",NA,NA,NA,NA,NA,NA,NA,NA,NA,NA,NA,NA,NA,NA,NA,NA,NA,NA,NA,NA,NA,NA,NA,NA,NA,NA,NA,NA,NA,NA,NA
NA,instructions,5,62401,0.0-5.0,5015,NA,NA,NA,NA,instructions,25955,NA,NA,NA,NA,NA,NA,NA,NA,NA,NA,NA,NA,NA,NA,NA,NA,NA,NA,NA,NA,NA,NA,NA,NA,NA,NA,NA,NA,NA,NA,NA,NA,NA
NA,canvas-keyboard-response,6,62605,0.0-6.0-0.0,5015,NA,NA,NA,NA,pre trial waiting period,null,null,NA,NA,critical,c,t,d,164,240,240,164,240,164,spektor,0,w,240,164,164,240,240,164,39360,39360,39360,td,null,null,null,null,null,null,"[2,3]"
NA,canvas-keyboard-response,7,62771,0.0-6.0-1.0,5015,NA,NA,NA,NA,clear_screen,null,null,NA,NA,critical,c,t,d,164,240,240,164,240,164,spektor,0,w,240,164,164,240,240,164,39360,39360,39360,td,null,null,null,null,null,null,"[2,3]"
NA,canvas-keyboard-response,8,64113,0.0-6.0-2.0,5015,NA,NA,NA,NA,rectangles,null,null,NA,NA,critical,c,t,d,164,240,240,164,240,164,spektor,0,w,240,164,164,240,240,164,39360,39360,39360,td,null,null,null,null,null,null,"[2,3]"
NA,canvas-keyboard-response,9,64277,0.0-6.0-3.0,5015,NA,NA,NA,NA,clear_screen,null,null,NA,NA,critical,c,t,d,164,240,240,164,240,164,spektor,0,w,240,164,164,240,240,164,39360,39360,39360,td,null,null,null,null,null,null,"[2,3]"
NA,canvas-keyboard-response,10,66778,0.0-6.0-4.0,5015,NA,NA,NA,NA,make choice,2485,2,NA,NA,critical,c,t,d,164,240,240,164,240,164,spektor,0,w,240,164,164,240,240,164,39360,39360,39360,td,null,null,null,null,null,null,"[2,3]"
NA,canvas-keyboard-response,11,66938,0.0-6.0-5.0,5015,NA,NA,NA,NA,clear_screen,null,null,NA,NA,critical,c,t,d,164,240,240,164,240,164,spektor,0,w,240,164,164,240,240,164,39360,39360,39360,td,null,null,null,null,null,null,"[2,3]"
NA,canvas-keyboard-response,12,67143,0.0-6.0-0.1,5015,NA,NA,NA,NA,pre trial waiting period,null,null,NA,NA,critical,d,t,c,164,240,164,240,240,164,spektor,0,h,164,240,240,164,164,240,39360,39360,39360,dc,null,null,null,null,null,null,"[1,3]"
NA,canvas-keyboard-response,13,67300,0.0-6.0-1.1,5015,NA,NA,NA,NA,clear_screen,null,null,NA,NA,critical,d,t,c,164,240,164,240,240,164,spektor,0,h,164,240,240,164,164,240,39360,39360,39360,dc,null,null,null,null,null,null,"[1,3]"
NA,canvas-keyboard-response,14,68637,0.0-6.0-2.1,5015,NA,NA,NA,NA,rectangles,null,null,NA,NA,critical,d,t,c,164,240,164,240,240,164,spektor,0,h,164,240,240,164,164,240,39360,39360,39360,dc,null,null,null,null,null,null,"[1,3]"
NA,canvas-keyboard-response,15,68799,0.0-6.0-3.1,5015,NA,NA,NA,NA,clear_screen,null,null,NA,NA,critical,d,t,c,164,240,164,240,240,164,spektor,0,h,164,240,240,164,164,240,39360,39360,39360,dc,null,null,null,null,null,null,"[1,3]"
NA,canvas-keyboard-response,16,69984,0.0-6.0-4.1,5015,NA,NA,NA,NA,make choice,1170,3,NA,NA,critical,d,t,c,164,240,164,240,240,164,spektor,0,h,164,240,240,164,164,240,39360,39360,39360,dc,null,null,null,null,null,null,"[1,3]"
NA,canvas-keyboard-response,17,70149,0.0-6.0-5.1,5015,NA,NA,NA,NA,clear_screen,null,null,NA,NA,critical,d,t,c,164,240,164,240,240,164,spektor,0,h,164,240,240,164,164,240,39360,39360,39360,dc,null,null,null,null,null,null,"[1,3]"
NA,canvas-keyboard-response,18,70357,0.0-6.0-0.2,5015,NA,NA,NA,NA,pre trial waiting period,null,null,NA,NA,catch,l,sh,sw,226,226,220,191,206,216,trueblood,null,null,null,null,null,null,null,null,null,null,null,NA,180,200,260,200,36000,52000,"[1,2]"
NA,canvas-keyboard-response,19,70519,0.0-6.0-1.2,5015,NA,NA,NA,NA,clear_screen,null,null,NA,NA,catch,l,sh,sw,226,226,220,191,206,216,trueblood,null,null,null,null,null,null,null,null,null,null,null,NA,180,200,260,200,36000,52000,"[1,2]"
NA,canvas-keyboard-response,20,71861,0.0-6.0-2.2,5015,NA,NA,NA,NA,rectangles,null,null,NA,NA,catch,l,sh,sw,226,226,220,191,206,216,trueblood,null,null,null,null,null,null,null,null,null,null,null,NA,180,200,260,200,36000,52000,"[1,2]"
NA,canvas-keyboard-response,21,72022,0.0-6.0-3.2,5015,NA,NA,NA,NA,clear_screen,null,null,NA,NA,catch,l,sh,sw,226,226,220,191,206,216,trueblood,null,null,null,null,null,null,null,null,null,null,null,NA,180,200,260,200,36000,52000,"[1,2]"
NA,canvas-keyboard-response,22,72904,0.0-6.0-4.2,5015,NA,NA,NA,NA,make choice,871,1,NA,NA,catch,l,sh,sw,226,226,220,191,206,216,trueblood,null,null,null,null,null,null,null,null,null,null,null,NA,180,200,260,200,36000,52000,"[1,2]"
NA,canvas-keyboard-response,23,73064,0.0-6.0-5.2,5015,NA,NA,NA,NA,clear_screen,null,null,NA,NA,catch,l,sh,sw,226,226,220,191,206,216,trueblood,null,null,null,null,null,null,null,null,null,null,null,NA,180,200,260,200,36000,52000,"[1,2]"
NA,canvas-keyboard-response,24,73270,0.0-6.0-0.3,5015,NA,NA,NA,NA,pre trial waiting period,null,null,NA,NA,critical,t,c,d,240,164,164,240,220.0396,154.6796,trueblood,0.14,w,240,164,164,240,220.0396,154.6796,39360,39360,34035.6388,tc,null,null,null,null,null,null,"[1,2]"
NA,canvas-keyboard-response,25,73433,0.0-6.0-1.3,5015,NA,NA,NA,NA,clear_screen,null,null,NA,NA,critical,t,c,d,240,164,164,240,220.0396,154.6796,trueblood,0.14,w,240,164,164,240,220.0396,154.6796,39360,39360,34035.6388,tc,null,null,null,null,null,null,"[1,2]"
NA,canvas-keyboard-response,26,74770,0.0-6.0-2.3,5015,NA,NA,NA,NA,rectangles,null,null,NA,NA,critical,t,c,d,240,164,164,240,220.0396,154.6796,trueblood,0.14,w,240,164,164,240,220.0396,154.6796,39360,39360,34035.6388,tc,null,null,null,null,null,null,"[1,2]"
NA,canvas-keyboard-response,27,74932,0.0-6.0-3.3,5015,NA,NA,NA,NA,clear_screen,null,null,NA,NA,critical,t,c,d,240,164,164,240,220.0396,154.6796,trueblood,0.14,w,240,164,164,240,220.0396,154.6796,39360,39360,34035.6388,tc,null,null,null,null,null,null,"[1,2]"
NA,canvas-keyboard-response,28,76080,0.0-6.0-4.3,5015,NA,NA,NA,NA,make choice,1137,2,NA,NA,critical,t,c,d,240,164,164,240,220.0396,154.6796,trueblood,0.14,w,240,164,164,240,220.0396,154.6796,39360,39360,34035.6388,tc,null,null,null,null,null,null,"[1,2]"
NA,canvas-keyboard-response,29,76241,0.0-6.0-5.3,5015,NA,NA,NA,NA,clear_screen,null,null,NA,NA,critical,t,c,d,240,164,164,240,220.0396,154.6796,trueblood,0.14,w,240,164,164,240,220.0396,154.6796,39360,39360,34035.6388,tc,null,null,null,null,null,null,"[1,2]"
NA,canvas-keyboard-response,30,76446,0.0-6.0-0.4,5015,NA,NA,NA,NA,pre trial waiting period,null,null,NA,NA,catch,l,sh,sw,279,204,234,166,162,221,trueblood,null,null,null,null,null,null,null,null,null,null,null,NA,180,200,260,200,36000,52000,"[1,2]"
NA,canvas-keyboard-response,31,76602,0.0-6.0-1.4,5015,NA,NA,NA,NA,clear_screen,null,null,NA,NA,catch,l,sh,sw,279,204,234,166,162,221,trueblood,null,null,null,null,null,null,null,null,null,null,null,NA,180,200,260,200,36000,52000,"[1,2]"
NA,canvas-keyboard-response,32,77944,0.0-6.0-2.4,5015,NA,NA,NA,NA,rectangles,null,null,NA,NA,catch,l,sh,sw,279,204,234,166,162,221,trueblood,null,null,null,null,null,null,null,null,null,null,null,NA,180,200,260,200,36000,52000,"[1,2]"
NA,canvas-keyboard-response,33,78104,0.0-6.0-3.4,5015,NA,NA,NA,NA,clear_screen,null,null,NA,NA,catch,l,sh,sw,279,204,234,166,162,221,trueblood,null,null,null,null,null,null,null,null,null,null,null,NA,180,200,260,200,36000,52000,"[1,2]"
NA,canvas-keyboard-response,34,78728,0.0-6.0-4.4,5015,NA,NA,NA,NA,make choice,613,1,NA,NA,catch,l,sh,sw,279,204,234,166,162,221,trueblood,null,null,null,null,null,null,null,null,null,null,null,NA,180,200,260,200,36000,52000,"[1,2]"
NA,canvas-keyboard-response,35,78889,0.0-6.0-5.4,5015,NA,NA,NA,NA,clear_screen,null,null,NA,NA,catch,l,sh,sw,279,204,234,166,162,221,trueblood,null,null,null,null,null,null,null,null,null,null,null,NA,180,200,260,200,36000,52000,"[1,2]"
NA,canvas-keyboard-response,36,79095,0.0-6.0-0.5,5015,NA,NA,NA,NA,pre trial waiting period,null,null,NA,NA,catch,l,sw,sh,197,287,177,199,223,196,trueblood,null,null,null,null,null,null,null,null,null,null,null,NA,180,200,260,200,36000,52000,"[1,2]"
NA,canvas-keyboard-response,37,79256,0.0-6.0-1.5,5015,NA,NA,NA,NA,clear_screen,null,null,NA,NA,catch,l,sw,sh,197,287,177,199,223,196,trueblood,null,null,null,null,null,null,null,null,null,null,null,NA,180,200,260,200,36000,52000,"[1,2]"
NA,canvas-keyboard-response,38,80597,0.0-6.0-2.5,5015,NA,NA,NA,NA,rectangles,null,null,NA,NA,catch,l,sw,sh,197,287,177,199,223,196,trueblood,null,null,null,null,null,null,null,null,null,null,null,NA,180,200,260,200,36000,52000,"[1,2]"
NA,canvas-keyboard-response,39,80758,0.0-6.0-3.5,5015,NA,NA,NA,NA,clear_screen,null,null,NA,NA,catch,l,sw,sh,197,287,177,199,223,196,trueblood,null,null,null,null,null,null,null,null,null,null,null,NA,180,200,260,200,36000,52000,"[1,2]"
NA,canvas-keyboard-response,40,81327,0.0-6.0-4.5,5015,NA,NA,NA,NA,make choice,557,1,NA,NA,catch,l,sw,sh,197,287,177,199,223,196,trueblood,null,null,null,null,null,null,null,null,null,null,null,NA,180,200,260,200,36000,52000,"[1,2]"
NA,canvas-keyboard-response,41,81492,0.0-6.0-5.5,5015,NA,NA,NA,NA,clear_screen,null,null,NA,NA,catch,l,sw,sh,197,287,177,199,223,196,trueblood,null,null,null,null,null,null,null,null,null,null,null,NA,180,200,260,200,36000,52000,"[1,2]"
NA,canvas-keyboard-response,42,81701,0.0-6.0-0.6,5015,NA,NA,NA,NA,pre trial waiting period,null,null,NA,NA,critical,d,t,c,162.6685,237.1485,164,240,240,164,spektor,0.02,h,164,240,240,164,162.6685,237.1485,39360,39360,38576.5967,dc,null,null,null,null,null,null,"[1,3]"
NA,canvas-keyboard-response,43,81858,0.0-6.0-1.6,5015,NA,NA,NA,NA,clear_screen,null,null,NA,NA,critical,d,t,c,162.6685,237.1485,164,240,240,164,spektor,0.02,h,164,240,240,164,162.6685,237.1485,39360,39360,38576.5967,dc,null,null,null,null,null,null,"[1,3]"
NA,canvas-keyboard-response,44,83196,0.0-6.0-2.6,5015,NA,NA,NA,NA,rectangles,null,null,NA,NA,critical,d,t,c,162.6685,237.1485,164,240,240,164,spektor,0.02,h,164,240,240,164,162.6685,237.1485,39360,39360,38576.5967,dc,null,null,null,null,null,null,"[1,3]"
NA,canvas-keyboard-response,45,83359,0.0-6.0-3.6,5015,NA,NA,NA,NA,clear_screen,null,null,NA,NA,critical,d,t,c,162.6685,237.1485,164,240,240,164,spektor,0.02,h,164,240,240,164,162.6685,237.1485,39360,39360,38576.5967,dc,null,null,null,null,null,null,"[1,3]"
NA,canvas-keyboard-response,46,83984,0.0-6.0-4.6,5015,NA,NA,NA,NA,make choice,614,3,NA,NA,critical,d,t,c,162.6685,237.1485,164,240,240,164,spektor,0.02,h,164,240,240,164,162.6685,237.1485,39360,39360,38576.5967,dc,null,null,null,null,null,null,"[1,3]"
NA,canvas-keyboard-response,47,84148,0.0-6.0-5.6,5015,NA,NA,NA,NA,clear_screen,null,null,NA,NA,critical,d,t,c,162.6685,237.1485,164,240,240,164,spektor,0.02,h,164,240,240,164,162.6685,237.1485,39360,39360,38576.5967,dc,null,null,null,null,null,null,"[1,3]"
NA,canvas-keyboard-response,48,84356,0.0-6.0-0.7,5015,NA,NA,NA,NA,pre trial waiting period,null,null,NA,NA,critical,c,t,d,240,164,164,240,158.0083,227.1683,trueblood,0.09,h,164,240,240,164,158.0083,227.1683,39360,39360,35894.4834,tc,null,null,null,null,null,null,"[2,1]"
NA,canvas-keyboard-response,49,84516,0.0-6.0-1.7,5015,NA,NA,NA,NA,clear_screen,null,null,NA,NA,critical,c,t,d,240,164,164,240,158.0083,227.1683,trueblood,0.09,h,164,240,240,164,158.0083,227.1683,39360,39360,35894.4834,tc,null,null,null,null,null,null,"[2,1]"
NA,canvas-keyboard-response,50,85854,0.0-6.0-2.7,5015,NA,NA,NA,NA,rectangles,null,null,NA,NA,critical,c,t,d,240,164,164,240,158.0083,227.1683,trueblood,0.09,h,164,240,240,164,158.0083,227.1683,39360,39360,35894.4834,tc,null,null,null,null,null,null,"[2,1]"
NA,canvas-keyboard-response,51,86018,0.0-6.0-3.7,5015,NA,NA,NA,NA,clear_screen,null,null,NA,NA,critical,c,t,d,240,164,164,240,158.0083,227.1683,trueblood,0.09,h,164,240,240,164,158.0083,227.1683,39360,39360,35894.4834,tc,null,null,null,null,null,null,"[2,1]"
NA,canvas-keyboard-response,52,86752,0.0-6.0-4.7,5015,NA,NA,NA,NA,make choice,722,1,NA,NA,critical,c,t,d,240,164,164,240,158.0083,227.1683,trueblood,0.09,h,164,240,240,164,158.0083,227.1683,39360,39360,35894.4834,tc,null,null,null,null,null,null,"[2,1]"
NA,canvas-keyboard-response,53,86914,0.0-6.0-5.7,5015,NA,NA,NA,NA,clear_screen,null,null,NA,NA,critical,c,t,d,240,164,164,240,158.0083,227.1683,trueblood,0.09,h,164,240,240,164,158.0083,227.1683,39360,39360,35894.4834,tc,null,null,null,null,null,null,"[2,1]"
NA,canvas-keyboard-response,54,87122,0.0-6.0-0.8,5015,NA,NA,NA,NA,pre trial waiting period,null,null,NA,NA,catch,l,sw,sh,171,249,208,194,233,161,spektor,null,null,null,null,null,null,null,null,null,null,null,NA,180,200,260,200,36000,52000,"[1,3]"
NA,canvas-keyboard-response,55,87283,0.0-6.0-1.8,5015,NA,NA,NA,NA,clear_screen,null,null,NA,NA,catch,l,sw,sh,171,249,208,194,233,161,spektor,null,null,null,null,null,null,null,null,null,null,null,NA,180,200,260,200,36000,52000,"[1,3]"
NA,canvas-keyboard-response,56,88624,0.0-6.0-2.8,5015,NA,NA,NA,NA,rectangles,null,null,NA,NA,catch,l,sw,sh,171,249,208,194,233,161,spektor,null,null,null,null,null,null,null,null,null,null,null,NA,180,200,260,200,36000,52000,"[1,3]"
NA,canvas-keyboard-response,57,88785,0.0-6.0-3.8,5015,NA,NA,NA,NA,clear_screen,null,null,NA,NA,catch,l,sw,sh,171,249,208,194,233,161,spektor,null,null,null,null,null,null,null,null,null,null,null,NA,180,200,260,200,36000,52000,"[1,3]"
NA,canvas-keyboard-response,58,89120,0.0-6.0-4.8,5015,NA,NA,NA,NA,make choice,322,3,NA,NA,catch,l,sw,sh,171,249,208,194,233,161,spektor,null,null,null,null,null,null,null,null,null,null,null,NA,180,200,260,200,36000,52000,"[1,3]"
NA,canvas-keyboard-response,59,89281,0.0-6.0-5.8,5015,NA,NA,NA,NA,clear_screen,null,null,NA,NA,catch,l,sw,sh,171,249,208,194,233,161,spektor,null,null,null,null,null,null,null,null,null,null,null,NA,180,200,260,200,36000,52000,"[1,3]"
NA,canvas-keyboard-response,60,89484,0.0-6.0-0.9,5015,NA,NA,NA,NA,pre trial waiting period,null,null,NA,NA,catch,l,sw,sh,215,265,175,198,225,161,spektor,null,null,null,null,null,null,null,null,null,null,null,NA,180,200,260,200,36000,52000,"[1,3]"
NA,canvas-keyboard-response,61,89647,0.0-6.0-1.9,5015,NA,NA,NA,NA,clear_screen,null,null,NA,NA,catch,l,sw,sh,215,265,175,198,225,161,spektor,null,null,null,null,null,null,null,null,null,null,null,NA,180,200,260,200,36000,52000,"[1,3]"
NA,canvas-keyboard-response,62,90983,0.0-6.0-2.9,5015,NA,NA,NA,NA,rectangles,null,null,NA,NA,catch,l,sw,sh,215,265,175,198,225,161,spektor,null,null,null,null,null,null,null,null,null,null,null,NA,180,200,260,200,36000,52000,"[1,3]"
NA,canvas-keyboard-response,63,91146,0.0-6.0-3.9,5015,NA,NA,NA,NA,clear_screen,null,null,NA,NA,catch,l,sw,sh,215,265,175,198,225,161,spektor,null,null,null,null,null,null,null,null,null,null,null,NA,180,200,260,200,36000,52000,"[1,3]"
NA,canvas-keyboard-response,64,92296,0.0-6.0-4.9,5015,NA,NA,NA,NA,make choice,1136,1,NA,NA,catch,l,sw,sh,215,265,175,198,225,161,spektor,null,null,null,null,null,null,null,null,null,null,null,NA,180,200,260,200,36000,52000,"[1,3]"
NA,canvas-keyboard-response,65,92459,0.0-6.0-5.9,5015,NA,NA,NA,NA,clear_screen,null,null,NA,NA,catch,l,sw,sh,215,265,175,198,225,161,spektor,null,null,null,null,null,null,null,null,null,null,null,NA,180,200,260,200,36000,52000,"[1,3]"
NA,canvas-keyboard-response,66,92670,0.0-6.0-0.10,5015,NA,NA,NA,NA,pre trial waiting period,null,null,NA,NA,critical,d,t,c,220.0396,154.6796,240,164,164,240,trueblood,0.14,w,240,164,164,240,220.0396,154.6796,39360,39360,34035.6388,td,null,null,null,null,null,null,"[2,1]"
NA,canvas-keyboard-response,67,92829,0.0-6.0-1.10,5015,NA,NA,NA,NA,clear_screen,null,null,NA,NA,critical,d,t,c,220.0396,154.6796,240,164,164,240,trueblood,0.14,w,240,164,164,240,220.0396,154.6796,39360,39360,34035.6388,td,null,null,null,null,null,null,"[2,1]"
NA,canvas-keyboard-response,68,94171,0.0-6.0-2.10,5015,NA,NA,NA,NA,rectangles,null,null,NA,NA,critical,d,t,c,220.0396,154.6796,240,164,164,240,trueblood,0.14,w,240,164,164,240,220.0396,154.6796,39360,39360,34035.6388,td,null,null,null,null,null,null,"[2,1]"
NA,canvas-keyboard-response,69,94335,0.0-6.0-3.10,5015,NA,NA,NA,NA,clear_screen,null,null,NA,NA,critical,d,t,c,220.0396,154.6796,240,164,164,240,trueblood,0.14,w,240,164,164,240,220.0396,154.6796,39360,39360,34035.6388,td,null,null,null,null,null,null,"[2,1]"
NA,canvas-keyboard-response,70,95720,0.0-6.0-4.10,5015,NA,NA,NA,NA,make choice,1370,2,NA,NA,critical,d,t,c,220.0396,154.6796,240,164,164,240,trueblood,0.14,w,240,164,164,240,220.0396,154.6796,39360,39360,34035.6388,td,null,null,null,null,null,null,"[2,1]"
NA,canvas-keyboard-response,71,95884,0.0-6.0-5.10,5015,NA,NA,NA,NA,clear_screen,null,null,NA,NA,critical,d,t,c,220.0396,154.6796,240,164,164,240,trueblood,0.14,w,240,164,164,240,220.0396,154.6796,39360,39360,34035.6388,td,null,null,null,null,null,null,"[2,1]"
NA,canvas-keyboard-response,72,96096,0.0-6.0-0.11,5015,NA,NA,NA,NA,pre trial waiting period,null,null,NA,NA,critical,d,c,t,154.6796,220.0396,240,164,164,240,trueblood,0.14,h,164,240,240,164,154.6796,220.0396,39360,39360,34035.6388,td,null,null,null,null,null,null,"[3,1]"
NA,canvas-keyboard-response,73,96254,0.0-6.0-1.11,5015,NA,NA,NA,NA,clear_screen,null,null,NA,NA,critical,d,c,t,154.6796,220.0396,240,164,164,240,trueblood,0.14,h,164,240,240,164,154.6796,220.0396,39360,39360,34035.6388,td,null,null,null,null,null,null,"[3,1]"
NA,canvas-keyboard-response,74,97597,0.0-6.0-2.11,5015,NA,NA,NA,NA,rectangles,null,null,NA,NA,critical,d,c,t,154.6796,220.0396,240,164,164,240,trueblood,0.14,h,164,240,240,164,154.6796,220.0396,39360,39360,34035.6388,td,null,null,null,null,null,null,"[3,1]"
NA,canvas-keyboard-response,75,97759,0.0-6.0-3.11,5015,NA,NA,NA,NA,clear_screen,null,null,NA,NA,critical,d,c,t,154.6796,220.0396,240,164,164,240,trueblood,0.14,h,164,240,240,164,154.6796,220.0396,39360,39360,34035.6388,td,null,null,null,null,null,null,"[3,1]"
NA,canvas-keyboard-response,76,98864,0.0-6.0-4.11,5015,NA,NA,NA,NA,make choice,1091,3,NA,NA,critical,d,c,t,154.6796,220.0396,240,164,164,240,trueblood,0.14,h,164,240,240,164,154.6796,220.0396,39360,39360,34035.6388,td,null,null,null,null,null,null,"[3,1]"
NA,canvas-keyboard-response,77,99026,0.0-6.0-5.11,5015,NA,NA,NA,NA,clear_screen,null,null,NA,NA,critical,d,c,t,154.6796,220.0396,240,164,164,240,trueblood,0.14,h,164,240,240,164,154.6796,220.0396,39360,39360,34035.6388,td,null,null,null,null,null,null,"[3,1]"
NA,canvas-keyboard-response,78,99235,0.0-6.0-0.12,5015,NA,NA,NA,NA,pre trial waiting period,null,null,NA,NA,catch,sh,sw,l,164,210,189,194,180,293,spektor,null,null,null,null,null,null,null,null,null,null,null,NA,180,200,260,200,36000,52000,"[1,3]"
NA,canvas-keyboard-response,79,99398,0.0-6.0-1.12,5015,NA,NA,NA,NA,clear_screen,null,null,NA,NA,catch,sh,sw,l,164,210,189,194,180,293,spektor,null,null,null,null,null,null,null,null,null,null,null,NA,180,200,260,200,36000,52000,"[1,3]"
NA,canvas-keyboard-response,80,100736,0.0-6.0-2.12,5015,NA,NA,NA,NA,rectangles,null,null,NA,NA,catch,sh,sw,l,164,210,189,194,180,293,spektor,null,null,null,null,null,null,null,null,null,null,null,NA,180,200,260,200,36000,52000,"[1,3]"
NA,canvas-keyboard-response,81,100902,0.0-6.0-3.12,5015,NA,NA,NA,NA,clear_screen,null,null,NA,NA,catch,sh,sw,l,164,210,189,194,180,293,spektor,null,null,null,null,null,null,null,null,null,null,null,NA,180,200,260,200,36000,52000,"[1,3]"
NA,canvas-keyboard-response,82,101601,0.0-6.0-4.12,5015,NA,NA,NA,NA,make choice,681,3,NA,NA,catch,sh,sw,l,164,210,189,194,180,293,spektor,null,null,null,null,null,null,null,null,null,null,null,NA,180,200,260,200,36000,52000,"[1,3]"
NA,canvas-keyboard-response,83,101771,0.0-6.0-5.12,5015,NA,NA,NA,NA,clear_screen,null,null,NA,NA,catch,sh,sw,l,164,210,189,194,180,293,spektor,null,null,null,null,null,null,null,null,null,null,null,NA,180,200,260,200,36000,52000,"[1,3]"
NA,canvas-keyboard-response,84,101986,0.0-6.0-0.13,5015,NA,NA,NA,NA,pre trial waiting period,null,null,NA,NA,critical,c,d,t,164,240,240,164,240,164,spektor,0,w,240,164,164,240,240,164,39360,39360,39360,tc,null,null,null,null,null,null,"[3,1]"
NA,canvas-keyboard-response,85,102141,0.0-6.0-1.13,5015,NA,NA,NA,NA,clear_screen,null,null,NA,NA,critical,c,d,t,164,240,240,164,240,164,spektor,0,w,240,164,164,240,240,164,39360,39360,39360,tc,null,null,null,null,null,null,"[3,1]"
NA,canvas-keyboard-response,86,103485,0.0-6.0-2.13,5015,NA,NA,NA,NA,rectangles,null,null,NA,NA,critical,c,d,t,164,240,240,164,240,164,spektor,0,w,240,164,164,240,240,164,39360,39360,39360,tc,null,null,null,null,null,null,"[3,1]"
NA,canvas-keyboard-response,87,103652,0.0-6.0-3.13,5015,NA,NA,NA,NA,clear_screen,null,null,NA,NA,critical,c,d,t,164,240,240,164,240,164,spektor,0,w,240,164,164,240,240,164,39360,39360,39360,tc,null,null,null,null,null,null,"[3,1]"
NA,canvas-keyboard-response,88,104456,0.0-6.0-4.13,5015,NA,NA,NA,NA,make choice,790,3,NA,NA,critical,c,d,t,164,240,240,164,240,164,spektor,0,w,240,164,164,240,240,164,39360,39360,39360,tc,null,null,null,null,null,null,"[3,1]"
NA,canvas-keyboard-response,89,104620,0.0-6.0-5.13,5015,NA,NA,NA,NA,clear_screen,null,null,NA,NA,critical,c,d,t,164,240,240,164,240,164,spektor,0,w,240,164,164,240,240,164,39360,39360,39360,tc,null,null,null,null,null,null,"[3,1]"
NA,canvas-keyboard-response,90,104833,0.0-6.0-0.14,5015,NA,NA,NA,NA,pre trial waiting period,null,null,NA,NA,critical,c,d,t,164,240,227.1683,158.0083,240,164,spektor,0.09,w,240,164,164,240,227.1683,158.0083,39360,39360,35894.4834,dc,null,null,null,null,null,null,"[2,1]"
NA,canvas-keyboard-response,91,104987,0.0-6.0-1.14,5015,NA,NA,NA,NA,clear_screen,null,null,NA,NA,critical,c,d,t,164,240,227.1683,158.0083,240,164,spektor,0.09,w,240,164,164,240,227.1683,158.0083,39360,39360,35894.4834,dc,null,null,null,null,null,null,"[2,1]"
NA,canvas-keyboard-response,92,106330,0.0-6.0-2.14,5015,NA,NA,NA,NA,rectangles,null,null,NA,NA,critical,c,d,t,164,240,227.1683,158.0083,240,164,spektor,0.09,w,240,164,164,240,227.1683,158.0083,39360,39360,35894.4834,dc,null,null,null,null,null,null,"[2,1]"
NA,canvas-keyboard-response,93,106500,0.0-6.0-3.14,5015,NA,NA,NA,NA,clear_screen,null,null,NA,NA,critical,c,d,t,164,240,227.1683,158.0083,240,164,spektor,0.09,w,240,164,164,240,227.1683,158.0083,39360,39360,35894.4834,dc,null,null,null,null,null,null,"[2,1]"
NA,canvas-keyboard-response,94,107967,0.0-6.0-4.14,5015,NA,NA,NA,NA,make choice,1456,2,NA,NA,critical,c,d,t,164,240,227.1683,158.0083,240,164,spektor,0.09,w,240,164,164,240,227.1683,158.0083,39360,39360,35894.4834,dc,null,null,null,null,null,null,"[2,1]"
NA,canvas-keyboard-response,95,108131,0.0-6.0-5.14,5015,NA,NA,NA,NA,clear_screen,null,null,NA,NA,critical,c,d,t,164,240,227.1683,158.0083,240,164,spektor,0.09,w,240,164,164,240,227.1683,158.0083,39360,39360,35894.4834,dc,null,null,null,null,null,null,"[2,1]"
NA,canvas-keyboard-response,96,108340,0.0-6.0-0.15,5015,NA,NA,NA,NA,pre trial waiting period,null,null,NA,NA,critical,c,d,t,240,164,158.0083,227.1683,164,240,trueblood,0.09,h,164,240,240,164,158.0083,227.1683,39360,39360,35894.4834,dc,null,null,null,null,null,null,"[2,1]"
NA,canvas-keyboard-response,97,108499,0.0-6.0-1.15,5015,NA,NA,NA,NA,clear_screen,null,null,NA,NA,critical,c,d,t,240,164,158.0083,227.1683,164,240,trueblood,0.09,h,164,240,240,164,158.0083,227.1683,39360,39360,35894.4834,dc,null,null,null,null,null,null,"[2,1]"
NA,canvas-keyboard-response,98,109838,0.0-6.0-2.15,5015,NA,NA,NA,NA,rectangles,null,null,NA,NA,critical,c,d,t,240,164,158.0083,227.1683,164,240,trueblood,0.09,h,164,240,240,164,158.0083,227.1683,39360,39360,35894.4834,dc,null,null,null,null,null,null,"[2,1]"
NA,canvas-keyboard-response,99,110004,0.0-6.0-3.15,5015,NA,NA,NA,NA,clear_screen,null,null,NA,NA,critical,c,d,t,240,164,158.0083,227.1683,164,240,trueblood,0.09,h,164,240,240,164,158.0083,227.1683,39360,39360,35894.4834,dc,null,null,null,null,null,null,"[2,1]"
NA,canvas-keyboard-response,100,111256,0.0-6.0-4.15,5015,NA,NA,NA,NA,make choice,1238,1,NA,NA,critical,c,d,t,240,164,158.0083,227.1683,164,240,trueblood,0.09,h,164,240,240,164,158.0083,227.1683,39360,39360,35894.4834,dc,null,null,null,null,null,null,"[2,1]"
NA,canvas-keyboard-response,101,111419,0.0-6.0-5.15,5015,NA,NA,NA,NA,clear_screen,null,null,NA,NA,critical,c,d,t,240,164,158.0083,227.1683,164,240,trueblood,0.09,h,164,240,240,164,158.0083,227.1683,39360,39360,35894.4834,dc,null,null,null,null,null,null,"[2,1]"
NA,canvas-keyboard-response,102,111628,0.0-6.0-0.16,5015,NA,NA,NA,NA,pre trial waiting period,null,null,NA,NA,critical,d,t,c,158.0083,227.1683,164,240,240,164,trueblood,0.09,h,164,240,240,164,158.0083,227.1683,39360,39360,35894.4834,td,null,null,null,null,null,null,"[2,1]"
NA,canvas-keyboard-response,103,111788,0.0-6.0-1.16,5015,NA,NA,NA,NA,clear_screen,null,null,NA,NA,critical,d,t,c,158.0083,227.1683,164,240,240,164,trueblood,0.09,h,164,240,240,164,158.0083,227.1683,39360,39360,35894.4834,td,null,null,null,null,null,null,"[2,1]"
NA,canvas-keyboard-response,104,113130,0.0-6.0-2.16,5015,NA,NA,NA,NA,rectangles,null,null,NA,NA,critical,d,t,c,158.0083,227.1683,164,240,240,164,trueblood,0.09,h,164,240,240,164,158.0083,227.1683,39360,39360,35894.4834,td,null,null,null,null,null,null,"[2,1]"
NA,canvas-keyboard-response,105,113295,0.0-6.0-3.16,5015,NA,NA,NA,NA,clear_screen,null,null,NA,NA,critical,d,t,c,158.0083,227.1683,164,240,240,164,trueblood,0.09,h,164,240,240,164,158.0083,227.1683,39360,39360,35894.4834,td,null,null,null,null,null,null,"[2,1]"
NA,canvas-keyboard-response,106,114456,0.0-6.0-4.16,5015,NA,NA,NA,NA,make choice,1148,2,NA,NA,critical,d,t,c,158.0083,227.1683,164,240,240,164,trueblood,0.09,h,164,240,240,164,158.0083,227.1683,39360,39360,35894.4834,td,null,null,null,null,null,null,"[2,1]"
NA,canvas-keyboard-response,107,114621,0.0-6.0-5.16,5015,NA,NA,NA,NA,clear_screen,null,null,NA,NA,critical,d,t,c,158.0083,227.1683,164,240,240,164,trueblood,0.09,h,164,240,240,164,158.0083,227.1683,39360,39360,35894.4834,td,null,null,null,null,null,null,"[2,1]"
NA,canvas-keyboard-response,108,114830,0.0-6.0-0.17,5015,NA,NA,NA,NA,pre trial waiting period,null,null,NA,NA,catch,sw,sh,l,180,200,237,145,234,254,trueblood,null,null,null,null,null,null,null,null,null,null,null,NA,180,200,260,200,36000,52000,"[2,3]"
NA,canvas-keyboard-response,109,114990,0.0-6.0-1.17,5015,NA,NA,NA,NA,clear_screen,null,null,NA,NA,catch,sw,sh,l,180,200,237,145,234,254,trueblood,null,null,null,null,null,null,null,null,null,null,null,NA,180,200,260,200,36000,52000,"[2,3]"
NA,canvas-keyboard-response,110,116330,0.0-6.0-2.17,5015,NA,NA,NA,NA,rectangles,null,null,NA,NA,catch,sw,sh,l,180,200,237,145,234,254,trueblood,null,null,null,null,null,null,null,null,null,null,null,NA,180,200,260,200,36000,52000,"[2,3]"
NA,canvas-keyboard-response,111,116494,0.0-6.0-3.17,5015,NA,NA,NA,NA,clear_screen,null,null,NA,NA,catch,sw,sh,l,180,200,237,145,234,254,trueblood,null,null,null,null,null,null,null,null,null,null,null,NA,180,200,260,200,36000,52000,"[2,3]"
NA,canvas-keyboard-response,112,117744,0.0-6.0-4.17,5015,NA,NA,NA,NA,make choice,1235,3,NA,NA,catch,sw,sh,l,180,200,237,145,234,254,trueblood,null,null,null,null,null,null,null,null,null,null,null,NA,180,200,260,200,36000,52000,"[2,3]"
NA,canvas-keyboard-response,113,117907,0.0-6.0-5.17,5015,NA,NA,NA,NA,clear_screen,null,null,NA,NA,catch,sw,sh,l,180,200,237,145,234,254,trueblood,null,null,null,null,null,null,null,null,null,null,null,NA,180,200,260,200,36000,52000,"[2,3]"
NA,canvas-keyboard-response,114,118117,0.0-6.0-0.18,5015,NA,NA,NA,NA,pre trial waiting period,null,null,NA,NA,catch,l,sw,sh,282,189,173,201,166,177,spektor,null,null,null,null,null,null,null,null,null,null,null,NA,180,200,260,200,36000,52000,"[1,3]"
NA,canvas-keyboard-response,115,118275,0.0-6.0-1.18,5015,NA,NA,NA,NA,clear_screen,null,null,NA,NA,catch,l,sw,sh,282,189,173,201,166,177,spektor,null,null,null,null,null,null,null,null,null,null,null,NA,180,200,260,200,36000,52000,"[1,3]"
NA,canvas-keyboard-response,116,119616,0.0-6.0-2.18,5015,NA,NA,NA,NA,rectangles,null,null,NA,NA,catch,l,sw,sh,282,189,173,201,166,177,spektor,null,null,null,null,null,null,null,null,null,null,null,NA,180,200,260,200,36000,52000,"[1,3]"
NA,canvas-keyboard-response,117,119783,0.0-6.0-3.18,5015,NA,NA,NA,NA,clear_screen,null,null,NA,NA,catch,l,sw,sh,282,189,173,201,166,177,spektor,null,null,null,null,null,null,null,null,null,null,null,NA,180,200,260,200,36000,52000,"[1,3]"
NA,canvas-keyboard-response,118,121784,0.0-6.0-4.18,5015,NA,NA,NA,NA,make choice,1986,3,NA,NA,catch,l,sw,sh,282,189,173,201,166,177,spektor,null,null,null,null,null,null,null,null,null,null,null,NA,180,200,260,200,36000,52000,"[1,3]"
NA,canvas-keyboard-response,119,121947,0.0-6.0-5.18,5015,NA,NA,NA,NA,clear_screen,null,null,NA,NA,catch,l,sw,sh,282,189,173,201,166,177,spektor,null,null,null,null,null,null,null,null,null,null,null,NA,180,200,260,200,36000,52000,"[1,3]"
NA,canvas-keyboard-response,120,122160,0.0-6.0-0.19,5015,NA,NA,NA,NA,pre trial waiting period,null,null,NA,NA,catch,sw,l,sh,180,200,260,183,193,157,trueblood,null,null,null,null,null,null,null,null,null,null,null,NA,180,200,260,200,36000,52000,"[2,3]"
NA,canvas-keyboard-response,121,122318,0.0-6.0-1.19,5015,NA,NA,NA,NA,clear_screen,null,null,NA,NA,catch,sw,l,sh,180,200,260,183,193,157,trueblood,null,null,null,null,null,null,null,null,null,null,null,NA,180,200,260,200,36000,52000,"[2,3]"
NA,canvas-keyboard-response,122,123658,0.0-6.0-2.19,5015,NA,NA,NA,NA,rectangles,null,null,NA,NA,catch,sw,l,sh,180,200,260,183,193,157,trueblood,null,null,null,null,null,null,null,null,null,null,null,NA,180,200,260,200,36000,52000,"[2,3]"
NA,canvas-keyboard-response,123,123823,0.0-6.0-3.19,5015,NA,NA,NA,NA,clear_screen,null,null,NA,NA,catch,sw,l,sh,180,200,260,183,193,157,trueblood,null,null,null,null,null,null,null,null,null,null,null,NA,180,200,260,200,36000,52000,"[2,3]"
NA,canvas-keyboard-response,124,124792,0.0-6.0-4.19,5015,NA,NA,NA,NA,make choice,954,2,NA,NA,catch,sw,l,sh,180,200,260,183,193,157,trueblood,null,null,null,null,null,null,null,null,null,null,null,NA,180,200,260,200,36000,52000,"[2,3]"
NA,canvas-keyboard-response,125,124956,0.0-6.0-5.19,5015,NA,NA,NA,NA,clear_screen,null,null,NA,NA,catch,sw,l,sh,180,200,260,183,193,157,trueblood,null,null,null,null,null,null,null,null,null,null,null,NA,180,200,260,200,36000,52000,"[2,3]"
NA,canvas-keyboard-response,126,125170,0.0-6.0-0.20,5015,NA,NA,NA,NA,pre trial waiting period,null,null,NA,NA,critical,t,d,c,164,240,160.6713,232.8713,240,164,trueblood,0.05,h,164,240,240,164,160.6713,232.8713,39360,39360,37415.7294,td,null,null,null,null,null,null,"[1,2]"
NA,canvas-keyboard-response,127,125330,0.0-6.0-1.20,5015,NA,NA,NA,NA,clear_screen,null,null,NA,NA,critical,t,d,c,164,240,160.6713,232.8713,240,164,trueblood,0.05,h,164,240,240,164,160.6713,232.8713,39360,39360,37415.7294,td,null,null,null,null,null,null,"[1,2]"
NA,canvas-keyboard-response,128,126668,0.0-6.0-2.20,5015,NA,NA,NA,NA,rectangles,null,null,NA,NA,critical,t,d,c,164,240,160.6713,232.8713,240,164,trueblood,0.05,h,164,240,240,164,160.6713,232.8713,39360,39360,37415.7294,td,null,null,null,null,null,null,"[1,2]"
NA,canvas-keyboard-response,129,126833,0.0-6.0-3.20,5015,NA,NA,NA,NA,clear_screen,null,null,NA,NA,critical,t,d,c,164,240,160.6713,232.8713,240,164,trueblood,0.05,h,164,240,240,164,160.6713,232.8713,39360,39360,37415.7294,td,null,null,null,null,null,null,"[1,2]"
NA,canvas-keyboard-response,130,127752,0.0-6.0-4.20,5015,NA,NA,NA,NA,make choice,905,2,NA,NA,critical,t,d,c,164,240,160.6713,232.8713,240,164,trueblood,0.05,h,164,240,240,164,160.6713,232.8713,39360,39360,37415.7294,td,null,null,null,null,null,null,"[1,2]"
NA,canvas-keyboard-response,131,127918,0.0-6.0-5.20,5015,NA,NA,NA,NA,clear_screen,null,null,NA,NA,critical,t,d,c,164,240,160.6713,232.8713,240,164,trueblood,0.05,h,164,240,240,164,160.6713,232.8713,39360,39360,37415.7294,td,null,null,null,null,null,null,"[1,2]"
NA,canvas-keyboard-response,132,128127,0.0-6.0-0.21,5015,NA,NA,NA,NA,pre trial waiting period,null,null,NA,NA,critical,c,t,d,164,240,240,164,227.1683,158.0083,trueblood,0.09,w,240,164,164,240,227.1683,158.0083,39360,39360,35894.4834,td,null,null,null,null,null,null,"[2,3]"
NA,canvas-keyboard-response,133,128287,0.0-6.0-1.21,5015,NA,NA,NA,NA,clear_screen,null,null,NA,NA,critical,c,t,d,164,240,240,164,227.1683,158.0083,trueblood,0.09,w,240,164,164,240,227.1683,158.0083,39360,39360,35894.4834,td,null,null,null,null,null,null,"[2,3]"
NA,canvas-keyboard-response,134,129628,0.0-6.0-2.21,5015,NA,NA,NA,NA,rectangles,null,null,NA,NA,critical,c,t,d,164,240,240,164,227.1683,158.0083,trueblood,0.09,w,240,164,164,240,227.1683,158.0083,39360,39360,35894.4834,td,null,null,null,null,null,null,"[2,3]"
NA,canvas-keyboard-response,135,129795,0.0-6.0-3.21,5015,NA,NA,NA,NA,clear_screen,null,null,NA,NA,critical,c,t,d,164,240,240,164,227.1683,158.0083,trueblood,0.09,w,240,164,164,240,227.1683,158.0083,39360,39360,35894.4834,td,null,null,null,null,null,null,"[2,3]"
NA,canvas-keyboard-response,136,130879,0.0-6.0-4.21,5015,NA,NA,NA,NA,make choice,1070,2,NA,NA,critical,c,t,d,164,240,240,164,227.1683,158.0083,trueblood,0.09,w,240,164,164,240,227.1683,158.0083,39360,39360,35894.4834,td,null,null,null,null,null,null,"[2,3]"
NA,canvas-keyboard-response,137,131047,0.0-6.0-5.21,5015,NA,NA,NA,NA,clear_screen,null,null,NA,NA,critical,c,t,d,164,240,240,164,227.1683,158.0083,trueblood,0.09,w,240,164,164,240,227.1683,158.0083,39360,39360,35894.4834,td,null,null,null,null,null,null,"[2,3]"
NA,canvas-keyboard-response,138,131260,0.0-6.0-0.22,5015,NA,NA,NA,NA,pre trial waiting period,null,null,NA,NA,catch,sh,l,sw,187,160,200,246,215,174,spektor,null,null,null,null,null,null,null,null,null,null,null,NA,180,200,260,200,36000,52000,"[1,2]"
NA,canvas-keyboard-response,139,131421,0.0-6.0-1.22,5015,NA,NA,NA,NA,clear_screen,null,null,NA,NA,catch,sh,l,sw,187,160,200,246,215,174,spektor,null,null,null,null,null,null,null,null,null,null,null,NA,180,200,260,200,36000,52000,"[1,2]"
NA,canvas-keyboard-response,140,132762,0.0-6.0-2.22,5015,NA,NA,NA,NA,rectangles,null,null,NA,NA,catch,sh,l,sw,187,160,200,246,215,174,spektor,null,null,null,null,null,null,null,null,null,null,null,NA,180,200,260,200,36000,52000,"[1,2]"
NA,canvas-keyboard-response,141,132928,0.0-6.0-3.22,5015,NA,NA,NA,NA,clear_screen,null,null,NA,NA,catch,sh,l,sw,187,160,200,246,215,174,spektor,null,null,null,null,null,null,null,null,null,null,null,NA,180,200,260,200,36000,52000,"[1,2]"
NA,canvas-keyboard-response,142,133552,0.0-6.0-4.22,5015,NA,NA,NA,NA,make choice,607,2,NA,NA,catch,sh,l,sw,187,160,200,246,215,174,spektor,null,null,null,null,null,null,null,null,null,null,null,NA,180,200,260,200,36000,52000,"[1,2]"
NA,canvas-keyboard-response,143,133717,0.0-6.0-5.22,5015,NA,NA,NA,NA,clear_screen,null,null,NA,NA,catch,sh,l,sw,187,160,200,246,215,174,spektor,null,null,null,null,null,null,null,null,null,null,null,NA,180,200,260,200,36000,52000,"[1,2]"
NA,canvas-keyboard-response,144,133931,0.0-6.0-0.23,5015,NA,NA,NA,NA,pre trial waiting period,null,null,NA,NA,catch,sh,l,sw,173,179,164,264,196,183,trueblood,null,null,null,null,null,null,null,null,null,null,null,NA,180,200,260,200,36000,52000,"[2,3]"
NA,canvas-keyboard-response,145,134090,0.0-6.0-1.23,5015,NA,NA,NA,NA,clear_screen,null,null,NA,NA,catch,sh,l,sw,173,179,164,264,196,183,trueblood,null,null,null,null,null,null,null,null,null,null,null,NA,180,200,260,200,36000,52000,"[2,3]"
NA,canvas-keyboard-response,146,135432,0.0-6.0-2.23,5015,NA,NA,NA,NA,rectangles,null,null,NA,NA,catch,sh,l,sw,173,179,164,264,196,183,trueblood,null,null,null,null,null,null,null,null,null,null,null,NA,180,200,260,200,36000,52000,"[2,3]"
NA,canvas-keyboard-response,147,135598,0.0-6.0-3.23,5015,NA,NA,NA,NA,clear_screen,null,null,NA,NA,catch,sh,l,sw,173,179,164,264,196,183,trueblood,null,null,null,null,null,null,null,null,null,null,null,NA,180,200,260,200,36000,52000,"[2,3]"
NA,canvas-keyboard-response,148,136199,0.0-6.0-4.23,5015,NA,NA,NA,NA,make choice,584,2,NA,NA,catch,sh,l,sw,173,179,164,264,196,183,trueblood,null,null,null,null,null,null,null,null,null,null,null,NA,180,200,260,200,36000,52000,"[2,3]"
NA,canvas-keyboard-response,149,136364,0.0-6.0-5.23,5015,NA,NA,NA,NA,clear_screen,null,null,NA,NA,catch,sh,l,sw,173,179,164,264,196,183,trueblood,null,null,null,null,null,null,null,null,null,null,null,NA,180,200,260,200,36000,52000,"[2,3]"
NA,canvas-keyboard-response,150,136577,0.0-6.0-0.24,5015,NA,NA,NA,NA,pre trial waiting period,null,null,NA,NA,catch,sh,l,sw,219,174,205,278,141,191,spektor,null,null,null,null,null,null,null,null,null,null,null,NA,180,200,260,200,36000,52000,"[2,3]"
NA,canvas-keyboard-response,151,136740,0.0-6.0-1.24,5015,NA,NA,NA,NA,clear_screen,null,null,NA,NA,catch,sh,l,sw,219,174,205,278,141,191,spektor,null,null,null,null,null,null,null,null,null,null,null,NA,180,200,260,200,36000,52000,"[2,3]"
NA,canvas-keyboard-response,152,138090,0.0-6.0-2.24,5015,NA,NA,NA,NA,rectangles,null,null,NA,NA,catch,sh,l,sw,219,174,205,278,141,191,spektor,null,null,null,null,null,null,null,null,null,null,null,NA,180,200,260,200,36000,52000,"[2,3]"
NA,canvas-keyboard-response,153,138258,0.0-6.0-3.24,5015,NA,NA,NA,NA,clear_screen,null,null,NA,NA,catch,sh,l,sw,219,174,205,278,141,191,spektor,null,null,null,null,null,null,null,null,null,null,null,NA,180,200,260,200,36000,52000,"[2,3]"
NA,canvas-keyboard-response,154,138782,0.0-6.0-4.24,5015,NA,NA,NA,NA,make choice,511,2,NA,NA,catch,sh,l,sw,219,174,205,278,141,191,spektor,null,null,null,null,null,null,null,null,null,null,null,NA,180,200,260,200,36000,52000,"[2,3]"
NA,canvas-keyboard-response,155,138946,0.0-6.0-5.24,5015,NA,NA,NA,NA,clear_screen,null,null,NA,NA,catch,sh,l,sw,219,174,205,278,141,191,spektor,null,null,null,null,null,null,null,null,null,null,null,NA,180,200,260,200,36000,52000,"[2,3]"
NA,canvas-keyboard-response,156,139156,0.0-6.0-0.25,5015,NA,NA,NA,NA,pre trial waiting period,null,null,NA,NA,critical,d,t,c,158.0083,227.1683,164,240,240,164,spektor,0.09,h,164,240,240,164,158.0083,227.1683,39360,39360,35894.4834,dc,null,null,null,null,null,null,"[1,3]"
NA,canvas-keyboard-response,157,139319,0.0-6.0-1.25,5015,NA,NA,NA,NA,clear_screen,null,null,NA,NA,critical,d,t,c,158.0083,227.1683,164,240,240,164,spektor,0.09,h,164,240,240,164,158.0083,227.1683,39360,39360,35894.4834,dc,null,null,null,null,null,null,"[1,3]"
NA,canvas-keyboard-response,158,140662,0.0-6.0-2.25,5015,NA,NA,NA,NA,rectangles,null,null,NA,NA,critical,d,t,c,158.0083,227.1683,164,240,240,164,spektor,0.09,h,164,240,240,164,158.0083,227.1683,39360,39360,35894.4834,dc,null,null,null,null,null,null,"[1,3]"
NA,canvas-keyboard-response,159,140826,0.0-6.0-3.25,5015,NA,NA,NA,NA,clear_screen,null,null,NA,NA,critical,d,t,c,158.0083,227.1683,164,240,240,164,spektor,0.09,h,164,240,240,164,158.0083,227.1683,39360,39360,35894.4834,dc,null,null,null,null,null,null,"[1,3]"
NA,canvas-keyboard-response,160,141737,0.0-6.0-4.25,5015,NA,NA,NA,NA,make choice,893,3,NA,NA,critical,d,t,c,158.0083,227.1683,164,240,240,164,spektor,0.09,h,164,240,240,164,158.0083,227.1683,39360,39360,35894.4834,dc,null,null,null,null,null,null,"[1,3]"
NA,canvas-keyboard-response,161,141904,0.0-6.0-5.25,5015,NA,NA,NA,NA,clear_screen,null,null,NA,NA,critical,d,t,c,158.0083,227.1683,164,240,240,164,spektor,0.09,h,164,240,240,164,158.0083,227.1683,39360,39360,35894.4834,dc,null,null,null,null,null,null,"[1,3]"
NA,canvas-keyboard-response,162,142117,0.0-6.0-0.26,5015,NA,NA,NA,NA,pre trial waiting period,null,null,NA,NA,catch,l,sh,sw,294,224,234,172,158,226,trueblood,null,null,null,null,null,null,null,null,null,null,null,NA,180,200,260,200,36000,52000,"[1,2]"
NA,canvas-keyboard-response,163,142280,0.0-6.0-1.26,5015,NA,NA,NA,NA,clear_screen,null,null,NA,NA,catch,l,sh,sw,294,224,234,172,158,226,trueblood,null,null,null,null,null,null,null,null,null,null,null,NA,180,200,260,200,36000,52000,"[1,2]"
NA,canvas-keyboard-response,164,143626,0.0-6.0-2.26,5015,NA,NA,NA,NA,rectangles,null,null,NA,NA,catch,l,sh,sw,294,224,234,172,158,226,trueblood,null,null,null,null,null,null,null,null,null,null,null,NA,180,200,260,200,36000,52000,"[1,2]"
NA,canvas-keyboard-response,165,143793,0.0-6.0-3.26,5015,NA,NA,NA,NA,clear_screen,null,null,NA,NA,catch,l,sh,sw,294,224,234,172,158,226,trueblood,null,null,null,null,null,null,null,null,null,null,null,NA,180,200,260,200,36000,52000,"[1,2]"
NA,canvas-keyboard-response,166,144352,0.0-6.0-4.26,5015,NA,NA,NA,NA,make choice,543,1,NA,NA,catch,l,sh,sw,294,224,234,172,158,226,trueblood,null,null,null,null,null,null,null,null,null,null,null,NA,180,200,260,200,36000,52000,"[1,2]"
NA,canvas-keyboard-response,167,144519,0.0-6.0-5.26,5015,NA,NA,NA,NA,clear_screen,null,null,NA,NA,catch,l,sh,sw,294,224,234,172,158,226,trueblood,null,null,null,null,null,null,null,null,null,null,null,NA,180,200,260,200,36000,52000,"[1,2]"
NA,canvas-keyboard-response,168,144735,0.0-6.0-0.27,5015,NA,NA,NA,NA,pre trial waiting period,null,null,NA,NA,critical,d,c,t,237.1485,162.6685,164,240,240,164,spektor,0.02,w,240,164,164,240,237.1485,162.6685,39360,39360,38576.5967,td,null,null,null,null,null,null,"[3,1]"
NA,canvas-keyboard-response,169,144894,0.0-6.0-1.27,5015,NA,NA,NA,NA,clear_screen,null,null,NA,NA,critical,d,c,t,237.1485,162.6685,164,240,240,164,spektor,0.02,w,240,164,164,240,237.1485,162.6685,39360,39360,38576.5967,td,null,null,null,null,null,null,"[3,1]"
NA,canvas-keyboard-response,170,146236,0.0-6.0-2.27,5015,NA,NA,NA,NA,rectangles,null,null,NA,NA,critical,d,c,t,237.1485,162.6685,164,240,240,164,spektor,0.02,w,240,164,164,240,237.1485,162.6685,39360,39360,38576.5967,td,null,null,null,null,null,null,"[3,1]"
NA,canvas-keyboard-response,171,146404,0.0-6.0-3.27,5015,NA,NA,NA,NA,clear_screen,null,null,NA,NA,critical,d,c,t,237.1485,162.6685,164,240,240,164,spektor,0.02,w,240,164,164,240,237.1485,162.6685,39360,39360,38576.5967,td,null,null,null,null,null,null,"[3,1]"
NA,canvas-keyboard-response,172,147096,0.0-6.0-4.27,5015,NA,NA,NA,NA,make choice,677,3,NA,NA,critical,d,c,t,237.1485,162.6685,164,240,240,164,spektor,0.02,w,240,164,164,240,237.1485,162.6685,39360,39360,38576.5967,td,null,null,null,null,null,null,"[3,1]"
NA,canvas-keyboard-response,173,147262,0.0-6.0-5.27,5015,NA,NA,NA,NA,clear_screen,null,null,NA,NA,critical,d,c,t,237.1485,162.6685,164,240,240,164,spektor,0.02,w,240,164,164,240,237.1485,162.6685,39360,39360,38576.5967,td,null,null,null,null,null,null,"[3,1]"
NA,canvas-keyboard-response,174,147475,0.0-6.0-0.28,5015,NA,NA,NA,NA,pre trial waiting period,null,null,NA,NA,critical,d,c,t,240,164,164,240,240,164,trueblood,0,w,240,164,164,240,240,164,39360,39360,39360,tc,null,null,null,null,null,null,"[3,2]"
NA,canvas-keyboard-response,175,147635,0.0-6.0-1.28,5015,NA,NA,NA,NA,clear_screen,null,null,NA,NA,critical,d,c,t,240,164,164,240,240,164,trueblood,0,w,240,164,164,240,240,164,39360,39360,39360,tc,null,null,null,null,null,null,"[3,2]"
NA,canvas-keyboard-response,176,148977,0.0-6.0-2.28,5015,NA,NA,NA,NA,rectangles,null,null,NA,NA,critical,d,c,t,240,164,164,240,240,164,trueblood,0,w,240,164,164,240,240,164,39360,39360,39360,tc,null,null,null,null,null,null,"[3,2]"
NA,canvas-keyboard-response,177,149146,0.0-6.0-3.28,5015,NA,NA,NA,NA,clear_screen,null,null,NA,NA,critical,d,c,t,240,164,164,240,240,164,trueblood,0,w,240,164,164,240,240,164,39360,39360,39360,tc,null,null,null,null,null,null,"[3,2]"
NA,canvas-keyboard-response,178,150024,0.0-6.0-4.28,5015,NA,NA,NA,NA,make choice,860,2,NA,NA,critical,d,c,t,240,164,164,240,240,164,trueblood,0,w,240,164,164,240,240,164,39360,39360,39360,tc,null,null,null,null,null,null,"[3,2]"
NA,canvas-keyboard-response,179,150188,0.0-6.0-5.28,5015,NA,NA,NA,NA,clear_screen,null,null,NA,NA,critical,d,c,t,240,164,164,240,240,164,trueblood,0,w,240,164,164,240,240,164,39360,39360,39360,tc,null,null,null,null,null,null,"[3,2]"
NA,canvas-keyboard-response,180,150399,0.0-6.0-0.29,5015,NA,NA,NA,NA,pre trial waiting period,null,null,NA,NA,catch,sw,l,sh,180,200,207,239,174,191,spektor,null,null,null,null,null,null,null,null,null,null,null,NA,180,200,260,200,36000,52000,"[2,3]"
NA,canvas-keyboard-response,181,150560,0.0-6.0-1.29,5015,NA,NA,NA,NA,clear_screen,null,null,NA,NA,catch,sw,l,sh,180,200,207,239,174,191,spektor,null,null,null,null,null,null,null,null,null,null,null,NA,180,200,260,200,36000,52000,"[2,3]"
NA,canvas-keyboard-response,182,151904,0.0-6.0-2.29,5015,NA,NA,NA,NA,rectangles,null,null,NA,NA,catch,sw,l,sh,180,200,207,239,174,191,spektor,null,null,null,null,null,null,null,null,null,null,null,NA,180,200,260,200,36000,52000,"[2,3]"
NA,canvas-keyboard-response,183,152073,0.0-6.0-3.29,5015,NA,NA,NA,NA,clear_screen,null,null,NA,NA,catch,sw,l,sh,180,200,207,239,174,191,spektor,null,null,null,null,null,null,null,null,null,null,null,NA,180,200,260,200,36000,52000,"[2,3]"
NA,canvas-keyboard-response,184,152664,0.0-6.0-4.29,5015,NA,NA,NA,NA,make choice,572,2,NA,NA,catch,sw,l,sh,180,200,207,239,174,191,spektor,null,null,null,null,null,null,null,null,null,null,null,NA,180,200,260,200,36000,52000,"[2,3]"
NA,canvas-keyboard-response,185,152828,0.0-6.0-5.29,5015,NA,NA,NA,NA,clear_screen,null,null,NA,NA,catch,sw,l,sh,180,200,207,239,174,191,spektor,null,null,null,null,null,null,null,null,null,null,null,NA,180,200,260,200,36000,52000,"[2,3]"
NA,canvas-keyboard-response,186,153041,0.0-6.0-0.30,5015,NA,NA,NA,NA,pre trial waiting period,null,null,NA,NA,critical,c,t,d,164,240,240,164,237.1485,162.6685,spektor,0.02,w,240,164,164,240,237.1485,162.6685,39360,39360,38576.5967,dc,null,null,null,null,null,null,"[3,1]"
NA,canvas-keyboard-response,187,153199,0.0-6.0-1.30,5015,NA,NA,NA,NA,clear_screen,null,null,NA,NA,critical,c,t,d,164,240,240,164,237.1485,162.6685,spektor,0.02,w,240,164,164,240,237.1485,162.6685,39360,39360,38576.5967,dc,null,null,null,null,null,null,"[3,1]"
NA,canvas-keyboard-response,188,154543,0.0-6.0-2.30,5015,NA,NA,NA,NA,rectangles,null,null,NA,NA,critical,c,t,d,164,240,240,164,237.1485,162.6685,spektor,0.02,w,240,164,164,240,237.1485,162.6685,39360,39360,38576.5967,dc,null,null,null,null,null,null,"[3,1]"
NA,canvas-keyboard-response,189,154710,0.0-6.0-3.30,5015,NA,NA,NA,NA,clear_screen,null,null,NA,NA,critical,c,t,d,164,240,240,164,237.1485,162.6685,spektor,0.02,w,240,164,164,240,237.1485,162.6685,39360,39360,38576.5967,dc,null,null,null,null,null,null,"[3,1]"
NA,canvas-keyboard-response,190,156071,0.0-6.0-4.30,5015,NA,NA,NA,NA,make choice,1345,1,NA,NA,critical,c,t,d,164,240,240,164,237.1485,162.6685,spektor,0.02,w,240,164,164,240,237.1485,162.6685,39360,39360,38576.5967,dc,null,null,null,null,null,null,"[3,1]"
NA,canvas-keyboard-response,191,156238,0.0-6.0-5.30,5015,NA,NA,NA,NA,clear_screen,null,null,NA,NA,critical,c,t,d,164,240,240,164,237.1485,162.6685,spektor,0.02,w,240,164,164,240,237.1485,162.6685,39360,39360,38576.5967,dc,null,null,null,null,null,null,"[3,1]"
NA,canvas-keyboard-response,192,156455,0.0-6.0-0.31,5015,NA,NA,NA,NA,pre trial waiting period,null,null,NA,NA,critical,d,t,c,154.6796,220.0396,164,240,240,164,trueblood,0.14,h,164,240,240,164,154.6796,220.0396,39360,39360,34035.6388,dc,null,null,null,null,null,null,"[1,3]"
NA,canvas-keyboard-response,193,156609,0.0-6.0-1.31,5015,NA,NA,NA,NA,clear_screen,null,null,NA,NA,critical,d,t,c,154.6796,220.0396,164,240,240,164,trueblood,0.14,h,164,240,240,164,154.6796,220.0396,39360,39360,34035.6388,dc,null,null,null,null,null,null,"[1,3]"
NA,canvas-keyboard-response,194,157950,0.0-6.0-2.31,5015,NA,NA,NA,NA,rectangles,null,null,NA,NA,critical,d,t,c,154.6796,220.0396,164,240,240,164,trueblood,0.14,h,164,240,240,164,154.6796,220.0396,39360,39360,34035.6388,dc,null,null,null,null,null,null,"[1,3]"
NA,canvas-keyboard-response,195,158121,0.0-6.0-3.31,5015,NA,NA,NA,NA,clear_screen,null,null,NA,NA,critical,d,t,c,154.6796,220.0396,164,240,240,164,trueblood,0.14,h,164,240,240,164,154.6796,220.0396,39360,39360,34035.6388,dc,null,null,null,null,null,null,"[1,3]"
NA,canvas-keyboard-response,196,159112,0.0-6.0-4.31,5015,NA,NA,NA,NA,make choice,975,3,NA,NA,critical,d,t,c,154.6796,220.0396,164,240,240,164,trueblood,0.14,h,164,240,240,164,154.6796,220.0396,39360,39360,34035.6388,dc,null,null,null,null,null,null,"[1,3]"
NA,canvas-keyboard-response,197,159278,0.0-6.0-5.31,5015,NA,NA,NA,NA,clear_screen,null,null,NA,NA,critical,d,t,c,154.6796,220.0396,164,240,240,164,trueblood,0.14,h,164,240,240,164,154.6796,220.0396,39360,39360,34035.6388,dc,null,null,null,null,null,null,"[1,3]"
NA,canvas-keyboard-response,198,159489,0.0-6.0-0.32,5015,NA,NA,NA,NA,pre trial waiting period,null,null,NA,NA,catch,sh,l,sw,231,154,207,275,166,191,spektor,null,null,null,null,null,null,null,null,null,null,null,NA,180,200,260,200,36000,52000,"[1,2]"
NA,canvas-keyboard-response,199,159650,0.0-6.0-1.32,5015,NA,NA,NA,NA,clear_screen,null,null,NA,NA,catch,sh,l,sw,231,154,207,275,166,191,spektor,null,null,null,null,null,null,null,null,null,null,null,NA,180,200,260,200,36000,52000,"[1,2]"
NA,canvas-keyboard-response,200,160996,0.0-6.0-2.32,5015,NA,NA,NA,NA,rectangles,null,null,NA,NA,catch,sh,l,sw,231,154,207,275,166,191,spektor,null,null,null,null,null,null,null,null,null,null,null,NA,180,200,260,200,36000,52000,"[1,2]"
NA,canvas-keyboard-response,201,161166,0.0-6.0-3.32,5015,NA,NA,NA,NA,clear_screen,null,null,NA,NA,catch,sh,l,sw,231,154,207,275,166,191,spektor,null,null,null,null,null,null,null,null,null,null,null,NA,180,200,260,200,36000,52000,"[1,2]"
NA,canvas-keyboard-response,202,161992,0.0-6.0-4.32,5015,NA,NA,NA,NA,make choice,809,2,NA,NA,catch,sh,l,sw,231,154,207,275,166,191,spektor,null,null,null,null,null,null,null,null,null,null,null,NA,180,200,260,200,36000,52000,"[1,2]"
NA,canvas-keyboard-response,203,162158,0.0-6.0-5.32,5015,NA,NA,NA,NA,clear_screen,null,null,NA,NA,catch,sh,l,sw,231,154,207,275,166,191,spektor,null,null,null,null,null,null,null,null,null,null,null,NA,180,200,260,200,36000,52000,"[1,2]"
NA,canvas-keyboard-response,204,162374,0.0-6.0-0.33,5015,NA,NA,NA,NA,pre trial waiting period,null,null,NA,NA,critical,d,c,t,237.1485,162.6685,164,240,240,164,trueblood,0.02,w,240,164,164,240,237.1485,162.6685,39360,39360,38576.5967,tc,null,null,null,null,null,null,"[3,2]"
NA,canvas-keyboard-response,205,162529,0.0-6.0-1.33,5015,NA,NA,NA,NA,clear_screen,null,null,NA,NA,critical,d,c,t,237.1485,162.6685,164,240,240,164,trueblood,0.02,w,240,164,164,240,237.1485,162.6685,39360,39360,38576.5967,tc,null,null,null,null,null,null,"[3,2]"
NA,canvas-keyboard-response,206,163874,0.0-6.0-2.33,5015,NA,NA,NA,NA,rectangles,null,null,NA,NA,critical,d,c,t,237.1485,162.6685,164,240,240,164,trueblood,0.02,w,240,164,164,240,237.1485,162.6685,39360,39360,38576.5967,tc,null,null,null,null,null,null,"[3,2]"
NA,canvas-keyboard-response,207,164040,0.0-6.0-3.33,5015,NA,NA,NA,NA,clear_screen,null,null,NA,NA,critical,d,c,t,237.1485,162.6685,164,240,240,164,trueblood,0.02,w,240,164,164,240,237.1485,162.6685,39360,39360,38576.5967,tc,null,null,null,null,null,null,"[3,2]"
NA,canvas-keyboard-response,208,164960,0.0-6.0-4.33,5015,NA,NA,NA,NA,make choice,904,3,NA,NA,critical,d,c,t,237.1485,162.6685,164,240,240,164,trueblood,0.02,w,240,164,164,240,237.1485,162.6685,39360,39360,38576.5967,tc,null,null,null,null,null,null,"[3,2]"
NA,canvas-keyboard-response,209,165126,0.0-6.0-5.33,5015,NA,NA,NA,NA,clear_screen,null,null,NA,NA,critical,d,c,t,237.1485,162.6685,164,240,240,164,trueblood,0.02,w,240,164,164,240,237.1485,162.6685,39360,39360,38576.5967,tc,null,null,null,null,null,null,"[3,2]"
NA,canvas-keyboard-response,210,165339,0.0-6.0-0.34,5015,NA,NA,NA,NA,pre trial waiting period,null,null,NA,NA,critical,c,d,t,240,164,154.6796,220.0396,164,240,trueblood,0.14,h,164,240,240,164,154.6796,220.0396,39360,39360,34035.6388,tc,null,null,null,null,null,null,"[3,1]"
NA,canvas-keyboard-response,211,165502,0.0-6.0-1.34,5015,NA,NA,NA,NA,clear_screen,null,null,NA,NA,critical,c,d,t,240,164,154.6796,220.0396,164,240,trueblood,0.14,h,164,240,240,164,154.6796,220.0396,39360,39360,34035.6388,tc,null,null,null,null,null,null,"[3,1]"
NA,canvas-keyboard-response,212,166846,0.0-6.0-2.34,5015,NA,NA,NA,NA,rectangles,null,null,NA,NA,critical,c,d,t,240,164,154.6796,220.0396,164,240,trueblood,0.14,h,164,240,240,164,154.6796,220.0396,39360,39360,34035.6388,tc,null,null,null,null,null,null,"[3,1]"
NA,canvas-keyboard-response,213,167016,0.0-6.0-3.34,5015,NA,NA,NA,NA,clear_screen,null,null,NA,NA,critical,c,d,t,240,164,154.6796,220.0396,164,240,trueblood,0.14,h,164,240,240,164,154.6796,220.0396,39360,39360,34035.6388,tc,null,null,null,null,null,null,"[3,1]"
NA,canvas-keyboard-response,214,167113,0.0-6.0-4.34,5015,NA,NA,NA,NA,make choice,86,1,NA,NA,critical,c,d,t,240,164,154.6796,220.0396,164,240,trueblood,0.14,h,164,240,240,164,154.6796,220.0396,39360,39360,34035.6388,tc,null,null,null,null,null,null,"[3,1]"
NA,canvas-keyboard-response,215,167278,0.0-6.0-5.34,5015,NA,NA,NA,NA,clear_screen,null,null,NA,NA,critical,c,d,t,240,164,154.6796,220.0396,164,240,trueblood,0.14,h,164,240,240,164,154.6796,220.0396,39360,39360,34035.6388,tc,null,null,null,null,null,null,"[3,1]"
NA,canvas-keyboard-response,216,167492,0.0-6.0-0.35,5015,NA,NA,NA,NA,pre trial waiting period,null,null,NA,NA,critical,t,c,d,240,164,164,240,227.1683,158.0083,trueblood,0.09,w,240,164,164,240,227.1683,158.0083,39360,39360,35894.4834,tc,null,null,null,null,null,null,"[1,2]"
NA,canvas-keyboard-response,217,167649,0.0-6.0-1.35,5015,NA,NA,NA,NA,clear_screen,null,null,NA,NA,critical,t,c,d,240,164,164,240,227.1683,158.0083,trueblood,0.09,w,240,164,164,240,227.1683,158.0083,39360,39360,35894.4834,tc,null,null,null,null,null,null,"[1,2]"
NA,canvas-keyboard-response,218,168992,0.0-6.0-2.35,5015,NA,NA,NA,NA,rectangles,null,null,NA,NA,critical,t,c,d,240,164,164,240,227.1683,158.0083,trueblood,0.09,w,240,164,164,240,227.1683,158.0083,39360,39360,35894.4834,tc,null,null,null,null,null,null,"[1,2]"
NA,canvas-keyboard-response,219,169162,0.0-6.0-3.35,5015,NA,NA,NA,NA,clear_screen,null,null,NA,NA,critical,t,c,d,240,164,164,240,227.1683,158.0083,trueblood,0.09,w,240,164,164,240,227.1683,158.0083,39360,39360,35894.4834,tc,null,null,null,null,null,null,"[1,2]"
NA,canvas-keyboard-response,220,169423,0.0-6.0-4.35,5015,NA,NA,NA,NA,make choice,245,1,NA,NA,critical,t,c,d,240,164,164,240,227.1683,158.0083,trueblood,0.09,w,240,164,164,240,227.1683,158.0083,39360,39360,35894.4834,tc,null,null,null,null,null,null,"[1,2]"
NA,canvas-keyboard-response,221,169591,0.0-6.0-5.35,5015,NA,NA,NA,NA,clear_screen,null,null,NA,NA,critical,t,c,d,240,164,164,240,227.1683,158.0083,trueblood,0.09,w,240,164,164,240,227.1683,158.0083,39360,39360,35894.4834,tc,null,null,null,null,null,null,"[1,2]"
NA,canvas-keyboard-response,222,169803,0.0-6.0-0.36,5015,NA,NA,NA,NA,pre trial waiting period,null,null,NA,NA,critical,t,d,c,240,164,220.0396,154.6796,164,240,spektor,0.14,w,240,164,164,240,220.0396,154.6796,39360,39360,34035.6388,dc,null,null,null,null,null,null,"[2,3]"
NA,canvas-keyboard-response,223,169962,0.0-6.0-1.36,5015,NA,NA,NA,NA,clear_screen,null,null,NA,NA,critical,t,d,c,240,164,220.0396,154.6796,164,240,spektor,0.14,w,240,164,164,240,220.0396,154.6796,39360,39360,34035.6388,dc,null,null,null,null,null,null,"[2,3]"
NA,canvas-keyboard-response,224,171318,0.0-6.0-2.36,5015,NA,NA,NA,NA,rectangles,null,null,NA,NA,critical,t,d,c,240,164,220.0396,154.6796,164,240,spektor,0.14,w,240,164,164,240,220.0396,154.6796,39360,39360,34035.6388,dc,null,null,null,null,null,null,"[2,3]"
NA,canvas-keyboard-response,225,171495,0.0-6.0-3.36,5015,NA,NA,NA,NA,clear_screen,null,null,NA,NA,critical,t,d,c,240,164,220.0396,154.6796,164,240,spektor,0.14,w,240,164,164,240,220.0396,154.6796,39360,39360,34035.6388,dc,null,null,null,null,null,null,"[2,3]"
NA,canvas-keyboard-response,226,172528,0.0-6.0-4.36,5015,NA,NA,NA,NA,make choice,1012,3,NA,NA,critical,t,d,c,240,164,220.0396,154.6796,164,240,spektor,0.14,w,240,164,164,240,220.0396,154.6796,39360,39360,34035.6388,dc,null,null,null,null,null,null,"[2,3]"
NA,canvas-keyboard-response,227,172695,0.0-6.0-5.36,5015,NA,NA,NA,NA,clear_screen,null,null,NA,NA,critical,t,d,c,240,164,220.0396,154.6796,164,240,spektor,0.14,w,240,164,164,240,220.0396,154.6796,39360,39360,34035.6388,dc,null,null,null,null,null,null,"[2,3]"
NA,canvas-keyboard-response,228,172912,0.0-6.0-0.37,5015,NA,NA,NA,NA,pre trial waiting period,null,null,NA,NA,catch,l,sh,sw,220,166,175,144,197,210,trueblood,null,null,null,null,null,null,null,null,null,null,null,NA,180,200,260,200,36000,52000,"[1,2]"
NA,canvas-keyboard-response,229,173067,0.0-6.0-1.37,5015,NA,NA,NA,NA,clear_screen,null,null,NA,NA,catch,l,sh,sw,220,166,175,144,197,210,trueblood,null,null,null,null,null,null,null,null,null,null,null,NA,180,200,260,200,36000,52000,"[1,2]"
NA,canvas-keyboard-response,230,174411,0.0-6.0-2.37,5015,NA,NA,NA,NA,rectangles,null,null,NA,NA,catch,l,sh,sw,220,166,175,144,197,210,trueblood,null,null,null,null,null,null,null,null,null,null,null,NA,180,200,260,200,36000,52000,"[1,2]"
NA,canvas-keyboard-response,231,174579,0.0-6.0-3.37,5015,NA,NA,NA,NA,clear_screen,null,null,NA,NA,catch,l,sh,sw,220,166,175,144,197,210,trueblood,null,null,null,null,null,null,null,null,null,null,null,NA,180,200,260,200,36000,52000,"[1,2]"
NA,canvas-keyboard-response,232,175936,0.0-6.0-4.37,5015,NA,NA,NA,NA,make choice,1339,1,NA,NA,catch,l,sh,sw,220,166,175,144,197,210,trueblood,null,null,null,null,null,null,null,null,null,null,null,NA,180,200,260,200,36000,52000,"[1,2]"
NA,canvas-keyboard-response,233,176105,0.0-6.0-5.37,5015,NA,NA,NA,NA,clear_screen,null,null,NA,NA,catch,l,sh,sw,220,166,175,144,197,210,trueblood,null,null,null,null,null,null,null,null,null,null,null,NA,180,200,260,200,36000,52000,"[1,2]"
NA,canvas-keyboard-response,234,176318,0.0-6.0-0.38,5015,NA,NA,NA,NA,pre trial waiting period,null,null,NA,NA,critical,t,d,c,240,164,240,164,164,240,trueblood,0,w,240,164,164,240,240,164,39360,39360,39360,td,null,null,null,null,null,null,"[1,2]"
NA,canvas-keyboard-response,235,176473,0.0-6.0-1.38,5015,NA,NA,NA,NA,clear_screen,null,null,NA,NA,critical,t,d,c,240,164,240,164,164,240,trueblood,0,w,240,164,164,240,240,164,39360,39360,39360,td,null,null,null,null,null,null,"[1,2]"
NA,canvas-keyboard-response,236,177816,0.0-6.0-2.38,5015,NA,NA,NA,NA,rectangles,null,null,NA,NA,critical,t,d,c,240,164,240,164,164,240,trueblood,0,w,240,164,164,240,240,164,39360,39360,39360,td,null,null,null,null,null,null,"[1,2]"
NA,canvas-keyboard-response,237,177983,0.0-6.0-3.38,5015,NA,NA,NA,NA,clear_screen,null,null,NA,NA,critical,t,d,c,240,164,240,164,164,240,trueblood,0,w,240,164,164,240,240,164,39360,39360,39360,td,null,null,null,null,null,null,"[1,2]"
NA,canvas-keyboard-response,238,178534,0.0-6.0-4.38,5015,NA,NA,NA,NA,make choice,532,2,NA,NA,critical,t,d,c,240,164,240,164,164,240,trueblood,0,w,240,164,164,240,240,164,39360,39360,39360,td,null,null,null,null,null,null,"[1,2]"
NA,canvas-keyboard-response,239,178700,0.0-6.0-5.38,5015,NA,NA,NA,NA,clear_screen,null,null,NA,NA,critical,t,d,c,240,164,240,164,164,240,trueblood,0,w,240,164,164,240,240,164,39360,39360,39360,td,null,null,null,null,null,null,"[1,2]"
NA,canvas-keyboard-response,240,178916,0.0-6.0-0.39,5015,NA,NA,NA,NA,pre trial waiting period,null,null,NA,NA,critical,t,d,c,240,164,232.8713,160.6713,164,240,trueblood,0.05,w,240,164,164,240,232.8713,160.6713,39360,39360,37415.7294,td,null,null,null,null,null,null,"[1,2]"
NA,canvas-keyboard-response,241,179072,0.0-6.0-1.39,5015,NA,NA,NA,NA,clear_screen,null,null,NA,NA,critical,t,d,c,240,164,232.8713,160.6713,164,240,trueblood,0.05,w,240,164,164,240,232.8713,160.6713,39360,39360,37415.7294,td,null,null,null,null,null,null,"[1,2]"
NA,canvas-keyboard-response,242,180419,0.0-6.0-2.39,5015,NA,NA,NA,NA,rectangles,null,null,NA,NA,critical,t,d,c,240,164,232.8713,160.6713,164,240,trueblood,0.05,w,240,164,164,240,232.8713,160.6713,39360,39360,37415.7294,td,null,null,null,null,null,null,"[1,2]"
NA,canvas-keyboard-response,243,180587,0.0-6.0-3.39,5015,NA,NA,NA,NA,clear_screen,null,null,NA,NA,critical,t,d,c,240,164,232.8713,160.6713,164,240,trueblood,0.05,w,240,164,164,240,232.8713,160.6713,39360,39360,37415.7294,td,null,null,null,null,null,null,"[1,2]"
NA,canvas-keyboard-response,244,182008,0.0-6.0-4.39,5015,NA,NA,NA,NA,make choice,1403,1,NA,NA,critical,t,d,c,240,164,232.8713,160.6713,164,240,trueblood,0.05,w,240,164,164,240,232.8713,160.6713,39360,39360,37415.7294,td,null,null,null,null,null,null,"[1,2]"
NA,canvas-keyboard-response,245,182062,0.0-6.0-5.39,5015,NA,NA,NA,NA,clear_screen,38,2,NA,NA,critical,t,d,c,240,164,232.8713,160.6713,164,240,trueblood,0.05,w,240,164,164,240,232.8713,160.6713,39360,39360,37415.7294,td,null,null,null,null,null,null,"[1,2]"
NA,canvas-keyboard-response,246,182277,0.0-6.0-0.40,5015,NA,NA,NA,NA,pre trial waiting period,null,null,NA,NA,critical,d,c,t,232.8713,160.6713,164,240,240,164,spektor,0.05,w,240,164,164,240,232.8713,160.6713,39360,39360,37415.7294,td,null,null,null,null,null,null,"[3,1]"
NA,canvas-keyboard-response,247,182437,0.0-6.0-1.40,5015,NA,NA,NA,NA,clear_screen,null,null,NA,NA,critical,d,c,t,232.8713,160.6713,164,240,240,164,spektor,0.05,w,240,164,164,240,232.8713,160.6713,39360,39360,37415.7294,td,null,null,null,null,null,null,"[3,1]"
NA,canvas-keyboard-response,248,183782,0.0-6.0-2.40,5015,NA,NA,NA,NA,rectangles,null,null,NA,NA,critical,d,c,t,232.8713,160.6713,164,240,240,164,spektor,0.05,w,240,164,164,240,232.8713,160.6713,39360,39360,37415.7294,td,null,null,null,null,null,null,"[3,1]"
NA,canvas-keyboard-response,249,183951,0.0-6.0-3.40,5015,NA,NA,NA,NA,clear_screen,null,null,NA,NA,critical,d,c,t,232.8713,160.6713,164,240,240,164,spektor,0.05,w,240,164,164,240,232.8713,160.6713,39360,39360,37415.7294,td,null,null,null,null,null,null,"[3,1]"
NA,canvas-keyboard-response,250,185055,0.0-6.0-4.40,5015,NA,NA,NA,NA,make choice,1083,3,NA,NA,critical,d,c,t,232.8713,160.6713,164,240,240,164,spektor,0.05,w,240,164,164,240,232.8713,160.6713,39360,39360,37415.7294,td,null,null,null,null,null,null,"[3,1]"
NA,canvas-keyboard-response,251,185224,0.0-6.0-5.40,5015,NA,NA,NA,NA,clear_screen,null,null,NA,NA,critical,d,c,t,232.8713,160.6713,164,240,240,164,spektor,0.05,w,240,164,164,240,232.8713,160.6713,39360,39360,37415.7294,td,null,null,null,null,null,null,"[3,1]"
NA,canvas-keyboard-response,252,185440,0.0-6.0-0.41,5015,NA,NA,NA,NA,pre trial waiting period,null,null,NA,NA,critical,t,d,c,240,164,227.1683,158.0083,164,240,spektor,0.09,w,240,164,164,240,227.1683,158.0083,39360,39360,35894.4834,td,null,null,null,null,null,null,"[1,2]"
NA,canvas-keyboard-response,253,185601,0.0-6.0-1.41,5015,NA,NA,NA,NA,clear_screen,null,null,NA,NA,critical,t,d,c,240,164,227.1683,158.0083,164,240,spektor,0.09,w,240,164,164,240,227.1683,158.0083,39360,39360,35894.4834,td,null,null,null,null,null,null,"[1,2]"
NA,canvas-keyboard-response,254,186947,0.0-6.0-2.41,5015,NA,NA,NA,NA,rectangles,null,null,NA,NA,critical,t,d,c,240,164,227.1683,158.0083,164,240,spektor,0.09,w,240,164,164,240,227.1683,158.0083,39360,39360,35894.4834,td,null,null,null,null,null,null,"[1,2]"
NA,canvas-keyboard-response,255,187116,0.0-6.0-3.41,5015,NA,NA,NA,NA,clear_screen,null,null,NA,NA,critical,t,d,c,240,164,227.1683,158.0083,164,240,spektor,0.09,w,240,164,164,240,227.1683,158.0083,39360,39360,35894.4834,td,null,null,null,null,null,null,"[1,2]"
NA,canvas-keyboard-response,256,188057,0.0-6.0-4.41,5015,NA,NA,NA,NA,make choice,921,1,NA,NA,critical,t,d,c,240,164,227.1683,158.0083,164,240,spektor,0.09,w,240,164,164,240,227.1683,158.0083,39360,39360,35894.4834,td,null,null,null,null,null,null,"[1,2]"
NA,canvas-keyboard-response,257,188222,0.0-6.0-5.41,5015,NA,NA,NA,NA,clear_screen,null,null,NA,NA,critical,t,d,c,240,164,227.1683,158.0083,164,240,spektor,0.09,w,240,164,164,240,227.1683,158.0083,39360,39360,35894.4834,td,null,null,null,null,null,null,"[1,2]"
NA,canvas-keyboard-response,258,188436,0.0-6.0-0.42,5015,NA,NA,NA,NA,pre trial waiting period,null,null,NA,NA,critical,t,c,d,164,240,240,164,154.6796,220.0396,spektor,0.14,h,164,240,240,164,154.6796,220.0396,39360,39360,34035.6388,dc,null,null,null,null,null,null,"[3,2]"
NA,canvas-keyboard-response,259,188590,0.0-6.0-1.42,5015,NA,NA,NA,NA,clear_screen,null,null,NA,NA,critical,t,c,d,164,240,240,164,154.6796,220.0396,spektor,0.14,h,164,240,240,164,154.6796,220.0396,39360,39360,34035.6388,dc,null,null,null,null,null,null,"[3,2]"
NA,canvas-keyboard-response,260,189935,0.0-6.0-2.42,5015,NA,NA,NA,NA,rectangles,null,null,NA,NA,critical,t,c,d,164,240,240,164,154.6796,220.0396,spektor,0.14,h,164,240,240,164,154.6796,220.0396,39360,39360,34035.6388,dc,null,null,null,null,null,null,"[3,2]"
NA,canvas-keyboard-response,261,190105,0.0-6.0-3.42,5015,NA,NA,NA,NA,clear_screen,null,null,NA,NA,critical,t,c,d,164,240,240,164,154.6796,220.0396,spektor,0.14,h,164,240,240,164,154.6796,220.0396,39360,39360,34035.6388,dc,null,null,null,null,null,null,"[3,2]"
NA,canvas-keyboard-response,262,190792,0.0-6.0-4.42,5015,NA,NA,NA,NA,make choice,668,2,NA,NA,critical,t,c,d,164,240,240,164,154.6796,220.0396,spektor,0.14,h,164,240,240,164,154.6796,220.0396,39360,39360,34035.6388,dc,null,null,null,null,null,null,"[3,2]"
NA,canvas-keyboard-response,263,190959,0.0-6.0-5.42,5015,NA,NA,NA,NA,clear_screen,null,null,NA,NA,critical,t,c,d,164,240,240,164,154.6796,220.0396,spektor,0.14,h,164,240,240,164,154.6796,220.0396,39360,39360,34035.6388,dc,null,null,null,null,null,null,"[3,2]"
NA,canvas-keyboard-response,264,191176,0.0-6.0-0.43,5015,NA,NA,NA,NA,pre trial waiting period,null,null,NA,NA,critical,d,c,t,160.6713,232.8713,240,164,164,240,spektor,0.05,h,164,240,240,164,160.6713,232.8713,39360,39360,37415.7294,tc,null,null,null,null,null,null,"[3,2]"
NA,canvas-keyboard-response,265,191334,0.0-6.0-1.43,5015,NA,NA,NA,NA,clear_screen,null,null,NA,NA,critical,d,c,t,160.6713,232.8713,240,164,164,240,spektor,0.05,h,164,240,240,164,160.6713,232.8713,39360,39360,37415.7294,tc,null,null,null,null,null,null,"[3,2]"
NA,canvas-keyboard-response,266,192681,0.0-6.0-2.43,5015,NA,NA,NA,NA,rectangles,null,null,NA,NA,critical,d,c,t,160.6713,232.8713,240,164,164,240,spektor,0.05,h,164,240,240,164,160.6713,232.8713,39360,39360,37415.7294,tc,null,null,null,null,null,null,"[3,2]"
NA,canvas-keyboard-response,267,192848,0.0-6.0-3.43,5015,NA,NA,NA,NA,clear_screen,null,null,NA,NA,critical,d,c,t,160.6713,232.8713,240,164,164,240,spektor,0.05,h,164,240,240,164,160.6713,232.8713,39360,39360,37415.7294,tc,null,null,null,null,null,null,"[3,2]"
NA,canvas-keyboard-response,268,193800,0.0-6.0-4.43,5015,NA,NA,NA,NA,make choice,934,2,NA,NA,critical,d,c,t,160.6713,232.8713,240,164,164,240,spektor,0.05,h,164,240,240,164,160.6713,232.8713,39360,39360,37415.7294,tc,null,null,null,null,null,null,"[3,2]"
NA,canvas-keyboard-response,269,193967,0.0-6.0-5.43,5015,NA,NA,NA,NA,clear_screen,null,null,NA,NA,critical,d,c,t,160.6713,232.8713,240,164,164,240,spektor,0.05,h,164,240,240,164,160.6713,232.8713,39360,39360,37415.7294,tc,null,null,null,null,null,null,"[3,2]"
NA,canvas-keyboard-response,270,194185,0.0-6.0-0.44,5015,NA,NA,NA,NA,pre trial waiting period,null,null,NA,NA,critical,d,t,c,164,240,164,240,240,164,trueblood,0,h,164,240,240,164,164,240,39360,39360,39360,tc,null,null,null,null,null,null,"[2,3]"
NA,canvas-keyboard-response,271,194344,0.0-6.0-1.44,5015,NA,NA,NA,NA,clear_screen,null,null,NA,NA,critical,d,t,c,164,240,164,240,240,164,trueblood,0,h,164,240,240,164,164,240,39360,39360,39360,tc,null,null,null,null,null,null,"[2,3]"
NA,canvas-keyboard-response,272,195691,0.0-6.0-2.44,5015,NA,NA,NA,NA,rectangles,null,null,NA,NA,critical,d,t,c,164,240,164,240,240,164,trueblood,0,h,164,240,240,164,164,240,39360,39360,39360,tc,null,null,null,null,null,null,"[2,3]"
NA,canvas-keyboard-response,273,195862,0.0-6.0-3.44,5015,NA,NA,NA,NA,clear_screen,null,null,NA,NA,critical,d,t,c,164,240,164,240,240,164,trueblood,0,h,164,240,240,164,164,240,39360,39360,39360,tc,null,null,null,null,null,null,"[2,3]"
NA,canvas-keyboard-response,274,197176,0.0-6.0-4.44,5015,NA,NA,NA,NA,make choice,1293,3,NA,NA,critical,d,t,c,164,240,164,240,240,164,trueblood,0,h,164,240,240,164,164,240,39360,39360,39360,tc,null,null,null,null,null,null,"[2,3]"
NA,canvas-keyboard-response,275,197344,0.0-6.0-5.44,5015,NA,NA,NA,NA,clear_screen,null,null,NA,NA,critical,d,t,c,164,240,164,240,240,164,trueblood,0,h,164,240,240,164,164,240,39360,39360,39360,tc,null,null,null,null,null,null,"[2,3]"
NA,canvas-keyboard-response,276,197559,0.0-6.0-0.45,5015,NA,NA,NA,NA,pre trial waiting period,null,null,NA,NA,critical,c,d,t,240,164,162.6685,237.1485,164,240,trueblood,0.02,h,164,240,240,164,162.6685,237.1485,39360,39360,38576.5967,dc,null,null,null,null,null,null,"[2,1]"
NA,canvas-keyboard-response,277,197713,0.0-6.0-1.45,5015,NA,NA,NA,NA,clear_screen,null,null,NA,NA,critical,c,d,t,240,164,162.6685,237.1485,164,240,trueblood,0.02,h,164,240,240,164,162.6685,237.1485,39360,39360,38576.5967,dc,null,null,null,null,null,null,"[2,1]"
NA,canvas-keyboard-response,278,199060,0.0-6.0-2.45,5015,NA,NA,NA,NA,rectangles,null,null,NA,NA,critical,c,d,t,240,164,162.6685,237.1485,164,240,trueblood,0.02,h,164,240,240,164,162.6685,237.1485,39360,39360,38576.5967,dc,null,null,null,null,null,null,"[2,1]"
NA,canvas-keyboard-response,279,199231,0.0-6.0-3.45,5015,NA,NA,NA,NA,clear_screen,null,null,NA,NA,critical,c,d,t,240,164,162.6685,237.1485,164,240,trueblood,0.02,h,164,240,240,164,162.6685,237.1485,39360,39360,38576.5967,dc,null,null,null,null,null,null,"[2,1]"
NA,canvas-keyboard-response,280,200256,0.0-6.0-4.45,5015,NA,NA,NA,NA,make choice,1006,1,NA,NA,critical,c,d,t,240,164,162.6685,237.1485,164,240,trueblood,0.02,h,164,240,240,164,162.6685,237.1485,39360,39360,38576.5967,dc,null,null,null,null,null,null,"[2,1]"
NA,canvas-keyboard-response,281,200424,0.0-6.0-5.45,5015,NA,NA,NA,NA,clear_screen,null,null,NA,NA,critical,c,d,t,240,164,162.6685,237.1485,164,240,trueblood,0.02,h,164,240,240,164,162.6685,237.1485,39360,39360,38576.5967,dc,null,null,null,null,null,null,"[2,1]"
NA,canvas-keyboard-response,282,200639,0.0-6.0-0.46,5015,NA,NA,NA,NA,pre trial waiting period,null,null,NA,NA,critical,t,c,d,164,240,240,164,160.6713,232.8713,trueblood,0.05,h,164,240,240,164,160.6713,232.8713,39360,39360,37415.7294,tc,null,null,null,null,null,null,"[1,2]"
NA,canvas-keyboard-response,283,200795,0.0-6.0-1.46,5015,NA,NA,NA,NA,clear_screen,null,null,NA,NA,critical,t,c,d,164,240,240,164,160.6713,232.8713,trueblood,0.05,h,164,240,240,164,160.6713,232.8713,39360,39360,37415.7294,tc,null,null,null,null,null,null,"[1,2]"
NA,canvas-keyboard-response,284,202150,0.0-6.0-2.46,5015,NA,NA,NA,NA,rectangles,null,null,NA,NA,critical,t,c,d,164,240,240,164,160.6713,232.8713,trueblood,0.05,h,164,240,240,164,160.6713,232.8713,39360,39360,37415.7294,tc,null,null,null,null,null,null,"[1,2]"
NA,canvas-keyboard-response,285,202328,0.0-6.0-3.46,5015,NA,NA,NA,NA,clear_screen,null,null,NA,NA,critical,t,c,d,164,240,240,164,160.6713,232.8713,trueblood,0.05,h,164,240,240,164,160.6713,232.8713,39360,39360,37415.7294,tc,null,null,null,null,null,null,"[1,2]"
NA,canvas-keyboard-response,286,203312,0.0-6.0-4.46,5015,NA,NA,NA,NA,make choice,970,2,NA,NA,critical,t,c,d,164,240,240,164,160.6713,232.8713,trueblood,0.05,h,164,240,240,164,160.6713,232.8713,39360,39360,37415.7294,tc,null,null,null,null,null,null,"[1,2]"
NA,canvas-keyboard-response,287,203482,0.0-6.0-5.46,5015,NA,NA,NA,NA,clear_screen,null,null,NA,NA,critical,t,c,d,164,240,240,164,160.6713,232.8713,trueblood,0.05,h,164,240,240,164,160.6713,232.8713,39360,39360,37415.7294,tc,null,null,null,null,null,null,"[1,2]"
NA,canvas-keyboard-response,288,203697,0.0-6.0-0.47,5015,NA,NA,NA,NA,pre trial waiting period,null,null,NA,NA,catch,sh,sw,l,208,199,157,228,236,172,trueblood,null,null,null,null,null,null,null,null,null,null,null,NA,180,200,260,200,36000,52000,"[1,3]"
NA,canvas-keyboard-response,289,203858,0.0-6.0-1.47,5015,NA,NA,NA,NA,clear_screen,null,null,NA,NA,catch,sh,sw,l,208,199,157,228,236,172,trueblood,null,null,null,null,null,null,null,null,null,null,null,NA,180,200,260,200,36000,52000,"[1,3]"
NA,canvas-keyboard-response,290,205205,0.0-6.0-2.47,5015,NA,NA,NA,NA,rectangles,null,null,NA,NA,catch,sh,sw,l,208,199,157,228,236,172,trueblood,null,null,null,null,null,null,null,null,null,null,null,NA,180,200,260,200,36000,52000,"[1,3]"
NA,canvas-keyboard-response,291,205378,0.0-6.0-3.47,5015,NA,NA,NA,NA,clear_screen,null,null,NA,NA,catch,sh,sw,l,208,199,157,228,236,172,trueblood,null,null,null,null,null,null,null,null,null,null,null,NA,180,200,260,200,36000,52000,"[1,3]"
NA,canvas-keyboard-response,292,206576,0.0-6.0-4.47,5015,NA,NA,NA,NA,make choice,1177,1,NA,NA,catch,sh,sw,l,208,199,157,228,236,172,trueblood,null,null,null,null,null,null,null,null,null,null,null,NA,180,200,260,200,36000,52000,"[1,3]"
NA,canvas-keyboard-response,293,206747,0.0-6.0-5.47,5015,NA,NA,NA,NA,clear_screen,null,null,NA,NA,catch,sh,sw,l,208,199,157,228,236,172,trueblood,null,null,null,null,null,null,null,null,null,null,null,NA,180,200,260,200,36000,52000,"[1,3]"
NA,canvas-keyboard-response,294,206963,0.0-6.0-0.48,5015,NA,NA,NA,NA,pre trial waiting period,null,null,NA,NA,critical,c,t,d,240,164,164,240,162.6685,237.1485,trueblood,0.02,h,164,240,240,164,162.6685,237.1485,39360,39360,38576.5967,tc,null,null,null,null,null,null,"[2,1]"
NA,canvas-keyboard-response,295,207121,0.0-6.0-1.48,5015,NA,NA,NA,NA,clear_screen,null,null,NA,NA,critical,c,t,d,240,164,164,240,162.6685,237.1485,trueblood,0.02,h,164,240,240,164,162.6685,237.1485,39360,39360,38576.5967,tc,null,null,null,null,null,null,"[2,1]"
NA,canvas-keyboard-response,296,208467,0.0-6.0-2.48,5015,NA,NA,NA,NA,rectangles,null,null,NA,NA,critical,c,t,d,240,164,164,240,162.6685,237.1485,trueblood,0.02,h,164,240,240,164,162.6685,237.1485,39360,39360,38576.5967,tc,null,null,null,null,null,null,"[2,1]"
NA,canvas-keyboard-response,297,208641,0.0-6.0-3.48,5015,NA,NA,NA,NA,clear_screen,null,null,NA,NA,critical,c,t,d,240,164,164,240,162.6685,237.1485,trueblood,0.02,h,164,240,240,164,162.6685,237.1485,39360,39360,38576.5967,tc,null,null,null,null,null,null,"[2,1]"
NA,canvas-keyboard-response,298,209272,0.0-6.0-4.48,5015,NA,NA,NA,NA,make choice,618,1,NA,NA,critical,c,t,d,240,164,164,240,162.6685,237.1485,trueblood,0.02,h,164,240,240,164,162.6685,237.1485,39360,39360,38576.5967,tc,null,null,null,null,null,null,"[2,1]"
NA,canvas-keyboard-response,299,209442,0.0-6.0-5.48,5015,NA,NA,NA,NA,clear_screen,null,null,NA,NA,critical,c,t,d,240,164,164,240,162.6685,237.1485,trueblood,0.02,h,164,240,240,164,162.6685,237.1485,39360,39360,38576.5967,tc,null,null,null,null,null,null,"[2,1]"
NA,canvas-keyboard-response,300,209661,0.0-6.0-0.49,5015,NA,NA,NA,NA,pre trial waiting period,null,null,NA,NA,catch,l,sh,sw,225,233,187,210,210,220,spektor,null,null,null,null,null,null,null,null,null,null,null,NA,180,200,260,200,36000,52000,"[1,3]"
NA,canvas-keyboard-response,301,209818,0.0-6.0-1.49,5015,NA,NA,NA,NA,clear_screen,null,null,NA,NA,catch,l,sh,sw,225,233,187,210,210,220,spektor,null,null,null,null,null,null,null,null,null,null,null,NA,180,200,260,200,36000,52000,"[1,3]"
NA,canvas-keyboard-response,302,211163,0.0-6.0-2.49,5015,NA,NA,NA,NA,rectangles,null,null,NA,NA,catch,l,sh,sw,225,233,187,210,210,220,spektor,null,null,null,null,null,null,null,null,null,null,null,NA,180,200,260,200,36000,52000,"[1,3]"
NA,canvas-keyboard-response,303,211336,0.0-6.0-3.49,5015,NA,NA,NA,NA,clear_screen,null,null,NA,NA,catch,l,sh,sw,225,233,187,210,210,220,spektor,null,null,null,null,null,null,null,null,null,null,null,NA,180,200,260,200,36000,52000,"[1,3]"
NA,canvas-keyboard-response,304,211800,0.0-6.0-4.49,5015,NA,NA,NA,NA,make choice,443,1,NA,NA,catch,l,sh,sw,225,233,187,210,210,220,spektor,null,null,null,null,null,null,null,null,null,null,null,NA,180,200,260,200,36000,52000,"[1,3]"
NA,canvas-keyboard-response,305,211970,0.0-6.0-5.49,5015,NA,NA,NA,NA,clear_screen,null,null,NA,NA,catch,l,sh,sw,225,233,187,210,210,220,spektor,null,null,null,null,null,null,null,null,null,null,null,NA,180,200,260,200,36000,52000,"[1,3]"
NA,canvas-keyboard-response,306,212185,0.0-6.0-0.50,5015,NA,NA,NA,NA,pre trial waiting period,null,null,NA,NA,critical,d,c,t,237.1485,162.6685,164,240,240,164,trueblood,0.02,w,240,164,164,240,237.1485,162.6685,39360,39360,38576.5967,dc,null,null,null,null,null,null,"[1,2]"
NA,canvas-keyboard-response,307,212344,0.0-6.0-1.50,5015,NA,NA,NA,NA,clear_screen,null,null,NA,NA,critical,d,c,t,237.1485,162.6685,164,240,240,164,trueblood,0.02,w,240,164,164,240,237.1485,162.6685,39360,39360,38576.5967,dc,null,null,null,null,null,null,"[1,2]"
NA,canvas-keyboard-response,308,213689,0.0-6.0-2.50,5015,NA,NA,NA,NA,rectangles,null,null,NA,NA,critical,d,c,t,237.1485,162.6685,164,240,240,164,trueblood,0.02,w,240,164,164,240,237.1485,162.6685,39360,39360,38576.5967,dc,null,null,null,null,null,null,"[1,2]"
NA,canvas-keyboard-response,309,213860,0.0-6.0-3.50,5015,NA,NA,NA,NA,clear_screen,null,null,NA,NA,critical,d,c,t,237.1485,162.6685,164,240,240,164,trueblood,0.02,w,240,164,164,240,237.1485,162.6685,39360,39360,38576.5967,dc,null,null,null,null,null,null,"[1,2]"
NA,canvas-keyboard-response,310,214399,0.0-6.0-4.50,5015,NA,NA,NA,NA,make choice,518,2,NA,NA,critical,d,c,t,237.1485,162.6685,164,240,240,164,trueblood,0.02,w,240,164,164,240,237.1485,162.6685,39360,39360,38576.5967,dc,null,null,null,null,null,null,"[1,2]"
NA,canvas-keyboard-response,311,214568,0.0-6.0-5.50,5015,NA,NA,NA,NA,clear_screen,null,null,NA,NA,critical,d,c,t,237.1485,162.6685,164,240,240,164,trueblood,0.02,w,240,164,164,240,237.1485,162.6685,39360,39360,38576.5967,dc,null,null,null,null,null,null,"[1,2]"
NA,canvas-keyboard-response,312,214782,0.0-6.0-0.51,5015,NA,NA,NA,NA,pre trial waiting period,null,null,NA,NA,critical,d,c,t,240,164,164,240,240,164,trueblood,0,w,240,164,164,240,240,164,39360,39360,39360,dc,null,null,null,null,null,null,"[1,2]"
NA,canvas-keyboard-response,313,214935,0.0-6.0-1.51,5015,NA,NA,NA,NA,clear_screen,null,null,NA,NA,critical,d,c,t,240,164,164,240,240,164,trueblood,0,w,240,164,164,240,240,164,39360,39360,39360,dc,null,null,null,null,null,null,"[1,2]"
NA,canvas-keyboard-response,314,216279,0.0-6.0-2.51,5015,NA,NA,NA,NA,rectangles,null,null,NA,NA,critical,d,c,t,240,164,164,240,240,164,trueblood,0,w,240,164,164,240,240,164,39360,39360,39360,dc,null,null,null,null,null,null,"[1,2]"
NA,canvas-keyboard-response,315,216448,0.0-6.0-3.51,5015,NA,NA,NA,NA,clear_screen,null,null,NA,NA,critical,d,c,t,240,164,164,240,240,164,trueblood,0,w,240,164,164,240,240,164,39360,39360,39360,dc,null,null,null,null,null,null,"[1,2]"
NA,canvas-keyboard-response,316,217504,0.0-6.0-4.51,5015,NA,NA,NA,NA,make choice,1037,1,NA,NA,critical,d,c,t,240,164,164,240,240,164,trueblood,0,w,240,164,164,240,240,164,39360,39360,39360,dc,null,null,null,null,null,null,"[1,2]"
NA,canvas-keyboard-response,317,217673,0.0-6.0-5.51,5015,NA,NA,NA,NA,clear_screen,null,null,NA,NA,critical,d,c,t,240,164,164,240,240,164,trueblood,0,w,240,164,164,240,240,164,39360,39360,39360,dc,null,null,null,null,null,null,"[1,2]"
NA,canvas-keyboard-response,318,217888,0.0-6.0-0.52,5015,NA,NA,NA,NA,pre trial waiting period,null,null,NA,NA,critical,d,t,c,164,240,164,240,240,164,trueblood,0,h,164,240,240,164,164,240,39360,39360,39360,td,null,null,null,null,null,null,"[2,1]"
NA,canvas-keyboard-response,319,218046,0.0-6.0-1.52,5015,NA,NA,NA,NA,clear_screen,null,null,NA,NA,critical,d,t,c,164,240,164,240,240,164,trueblood,0,h,164,240,240,164,164,240,39360,39360,39360,td,null,null,null,null,null,null,"[2,1]"
NA,canvas-keyboard-response,320,219395,0.0-6.0-2.52,5015,NA,NA,NA,NA,rectangles,null,null,NA,NA,critical,d,t,c,164,240,164,240,240,164,trueblood,0,h,164,240,240,164,164,240,39360,39360,39360,td,null,null,null,null,null,null,"[2,1]"
NA,canvas-keyboard-response,321,219566,0.0-6.0-3.52,5015,NA,NA,NA,NA,clear_screen,null,null,NA,NA,critical,d,t,c,164,240,164,240,240,164,trueblood,0,h,164,240,240,164,164,240,39360,39360,39360,td,null,null,null,null,null,null,"[2,1]"
NA,canvas-keyboard-response,322,220736,0.0-6.0-4.52,5015,NA,NA,NA,NA,make choice,1147,1,NA,NA,critical,d,t,c,164,240,164,240,240,164,trueblood,0,h,164,240,240,164,164,240,39360,39360,39360,td,null,null,null,null,null,null,"[2,1]"
NA,canvas-keyboard-response,323,220906,0.0-6.0-5.52,5015,NA,NA,NA,NA,clear_screen,null,null,NA,NA,critical,d,t,c,164,240,164,240,240,164,trueblood,0,h,164,240,240,164,164,240,39360,39360,39360,td,null,null,null,null,null,null,"[2,1]"
NA,canvas-keyboard-response,324,221122,0.0-6.0-0.53,5015,NA,NA,NA,NA,pre trial waiting period,null,null,NA,NA,critical,t,c,d,240,164,164,240,240,164,spektor,0,w,240,164,164,240,240,164,39360,39360,39360,dc,null,null,null,null,null,null,"[3,2]"
NA,canvas-keyboard-response,325,221280,0.0-6.0-1.53,5015,NA,NA,NA,NA,clear_screen,null,null,NA,NA,critical,t,c,d,240,164,164,240,240,164,spektor,0,w,240,164,164,240,240,164,39360,39360,39360,dc,null,null,null,null,null,null,"[3,2]"
NA,canvas-keyboard-response,326,222629,0.0-6.0-2.53,5015,NA,NA,NA,NA,rectangles,null,null,NA,NA,critical,t,c,d,240,164,164,240,240,164,spektor,0,w,240,164,164,240,240,164,39360,39360,39360,dc,null,null,null,null,null,null,"[3,2]"
NA,canvas-keyboard-response,327,222803,0.0-6.0-3.53,5015,NA,NA,NA,NA,clear_screen,null,null,NA,NA,critical,t,c,d,240,164,164,240,240,164,spektor,0,w,240,164,164,240,240,164,39360,39360,39360,dc,null,null,null,null,null,null,"[3,2]"
NA,canvas-keyboard-response,328,223920,0.0-6.0-4.53,5015,NA,NA,NA,NA,make choice,1096,2,NA,NA,critical,t,c,d,240,164,164,240,240,164,spektor,0,w,240,164,164,240,240,164,39360,39360,39360,dc,null,null,null,null,null,null,"[3,2]"
NA,canvas-keyboard-response,329,224089,0.0-6.0-5.53,5015,NA,NA,NA,NA,clear_screen,null,null,NA,NA,critical,t,c,d,240,164,164,240,240,164,spektor,0,w,240,164,164,240,240,164,39360,39360,39360,dc,null,null,null,null,null,null,"[3,2]"
NA,canvas-keyboard-response,330,224307,0.0-6.0-0.54,5015,NA,NA,NA,NA,pre trial waiting period,null,null,NA,NA,critical,c,d,t,240,164,160.6713,232.8713,164,240,spektor,0.05,h,164,240,240,164,160.6713,232.8713,39360,39360,37415.7294,td,null,null,null,null,null,null,"[3,2]"
NA,canvas-keyboard-response,331,224461,0.0-6.0-1.54,5015,NA,NA,NA,NA,clear_screen,null,null,NA,NA,critical,c,d,t,240,164,160.6713,232.8713,164,240,spektor,0.05,h,164,240,240,164,160.6713,232.8713,39360,39360,37415.7294,td,null,null,null,null,null,null,"[3,2]"
NA,canvas-keyboard-response,332,225807,0.0-6.0-2.54,5015,NA,NA,NA,NA,rectangles,null,null,NA,NA,critical,c,d,t,240,164,160.6713,232.8713,164,240,spektor,0.05,h,164,240,240,164,160.6713,232.8713,39360,39360,37415.7294,td,null,null,null,null,null,null,"[3,2]"
NA,canvas-keyboard-response,333,225979,0.0-6.0-3.54,5015,NA,NA,NA,NA,clear_screen,null,null,NA,NA,critical,c,d,t,240,164,160.6713,232.8713,164,240,spektor,0.05,h,164,240,240,164,160.6713,232.8713,39360,39360,37415.7294,td,null,null,null,null,null,null,"[3,2]"
NA,canvas-keyboard-response,334,226768,0.0-6.0-4.54,5015,NA,NA,NA,NA,make choice,769,2,NA,NA,critical,c,d,t,240,164,160.6713,232.8713,164,240,spektor,0.05,h,164,240,240,164,160.6713,232.8713,39360,39360,37415.7294,td,null,null,null,null,null,null,"[3,2]"
NA,canvas-keyboard-response,335,226937,0.0-6.0-5.54,5015,NA,NA,NA,NA,clear_screen,null,null,NA,NA,critical,c,d,t,240,164,160.6713,232.8713,164,240,spektor,0.05,h,164,240,240,164,160.6713,232.8713,39360,39360,37415.7294,td,null,null,null,null,null,null,"[3,2]"
NA,canvas-keyboard-response,336,227155,0.0-6.0-0.55,5015,NA,NA,NA,NA,pre trial waiting period,null,null,NA,NA,critical,c,d,t,240,164,162.6685,237.1485,164,240,spektor,0.02,h,164,240,240,164,162.6685,237.1485,39360,39360,38576.5967,td,null,null,null,null,null,null,"[3,2]"
NA,canvas-keyboard-response,337,227311,0.0-6.0-1.55,5015,NA,NA,NA,NA,clear_screen,null,null,NA,NA,critical,c,d,t,240,164,162.6685,237.1485,164,240,spektor,0.02,h,164,240,240,164,162.6685,237.1485,39360,39360,38576.5967,td,null,null,null,null,null,null,"[3,2]"
NA,canvas-keyboard-response,338,228656,0.0-6.0-2.55,5015,NA,NA,NA,NA,rectangles,null,null,NA,NA,critical,c,d,t,240,164,162.6685,237.1485,164,240,spektor,0.02,h,164,240,240,164,162.6685,237.1485,39360,39360,38576.5967,td,null,null,null,null,null,null,"[3,2]"
NA,canvas-keyboard-response,339,228829,0.0-6.0-3.55,5015,NA,NA,NA,NA,clear_screen,null,null,NA,NA,critical,c,d,t,240,164,162.6685,237.1485,164,240,spektor,0.02,h,164,240,240,164,162.6685,237.1485,39360,39360,38576.5967,td,null,null,null,null,null,null,"[3,2]"
NA,canvas-keyboard-response,340,229439,0.0-6.0-4.55,5015,NA,NA,NA,NA,make choice,588,2,NA,NA,critical,c,d,t,240,164,162.6685,237.1485,164,240,spektor,0.02,h,164,240,240,164,162.6685,237.1485,39360,39360,38576.5967,td,null,null,null,null,null,null,"[3,2]"
NA,canvas-keyboard-response,341,229607,0.0-6.0-5.55,5015,NA,NA,NA,NA,clear_screen,null,null,NA,NA,critical,c,d,t,240,164,162.6685,237.1485,164,240,spektor,0.02,h,164,240,240,164,162.6685,237.1485,39360,39360,38576.5967,td,null,null,null,null,null,null,"[3,2]"
NA,canvas-keyboard-response,342,229825,0.0-6.0-0.56,5015,NA,NA,NA,NA,pre trial waiting period,null,null,NA,NA,catch,l,sh,sw,261,197,177,187,209,229,trueblood,null,null,null,null,null,null,null,null,null,null,null,NA,180,200,260,200,36000,52000,"[1,2]"
NA,canvas-keyboard-response,343,229985,0.0-6.0-1.56,5015,NA,NA,NA,NA,clear_screen,null,null,NA,NA,catch,l,sh,sw,261,197,177,187,209,229,trueblood,null,null,null,null,null,null,null,null,null,null,null,NA,180,200,260,200,36000,52000,"[1,2]"
NA,canvas-keyboard-response,344,231329,0.0-6.0-2.56,5015,NA,NA,NA,NA,rectangles,null,null,NA,NA,catch,l,sh,sw,261,197,177,187,209,229,trueblood,null,null,null,null,null,null,null,null,null,null,null,NA,180,200,260,200,36000,52000,"[1,2]"
NA,canvas-keyboard-response,345,231503,0.0-6.0-3.56,5015,NA,NA,NA,NA,clear_screen,null,null,NA,NA,catch,l,sh,sw,261,197,177,187,209,229,trueblood,null,null,null,null,null,null,null,null,null,null,null,NA,180,200,260,200,36000,52000,"[1,2]"
NA,canvas-keyboard-response,346,231592,0.0-6.0-4.56,5015,NA,NA,NA,NA,make choice,57,1,NA,NA,catch,l,sh,sw,261,197,177,187,209,229,trueblood,null,null,null,null,null,null,null,null,null,null,null,NA,180,200,260,200,36000,52000,"[1,2]"
NA,canvas-keyboard-response,347,231770,0.0-6.0-5.56,5015,NA,NA,NA,NA,clear_screen,null,null,NA,NA,catch,l,sh,sw,261,197,177,187,209,229,trueblood,null,null,null,null,null,null,null,null,null,null,null,NA,180,200,260,200,36000,52000,"[1,2]"
NA,canvas-keyboard-response,348,231986,0.0-6.0-0.57,5015,NA,NA,NA,NA,pre trial waiting period,null,null,NA,NA,catch,sh,l,sw,229,157,253,225,154,214,trueblood,null,null,null,null,null,null,null,null,null,null,null,NA,180,200,260,200,36000,52000,"[2,3]"
NA,canvas-keyboard-response,349,232142,0.0-6.0-1.57,5015,NA,NA,NA,NA,clear_screen,null,null,NA,NA,catch,sh,l,sw,229,157,253,225,154,214,trueblood,null,null,null,null,null,null,null,null,null,null,null,NA,180,200,260,200,36000,52000,"[2,3]"
NA,canvas-keyboard-response,350,233489,0.0-6.0-2.57,5015,NA,NA,NA,NA,rectangles,null,null,NA,NA,catch,sh,l,sw,229,157,253,225,154,214,trueblood,null,null,null,null,null,null,null,null,null,null,null,NA,180,200,260,200,36000,52000,"[2,3]"
NA,canvas-keyboard-response,351,233662,0.0-6.0-3.57,5015,NA,NA,NA,NA,clear_screen,null,null,NA,NA,catch,sh,l,sw,229,157,253,225,154,214,trueblood,null,null,null,null,null,null,null,null,null,null,null,NA,180,200,260,200,36000,52000,"[2,3]"
NA,canvas-keyboard-response,352,234064,0.0-6.0-4.57,5015,NA,NA,NA,NA,make choice,381,2,NA,NA,catch,sh,l,sw,229,157,253,225,154,214,trueblood,null,null,null,null,null,null,null,null,null,null,null,NA,180,200,260,200,36000,52000,"[2,3]"
NA,canvas-keyboard-response,353,234233,0.0-6.0-5.57,5015,NA,NA,NA,NA,clear_screen,null,null,NA,NA,catch,sh,l,sw,229,157,253,225,154,214,trueblood,null,null,null,null,null,null,null,null,null,null,null,NA,180,200,260,200,36000,52000,"[2,3]"
NA,canvas-keyboard-response,354,234450,0.0-6.0-0.58,5015,NA,NA,NA,NA,pre trial waiting period,null,null,NA,NA,critical,d,t,c,164,240,164,240,240,164,trueblood,0,h,164,240,240,164,164,240,39360,39360,39360,dc,null,null,null,null,null,null,"[1,3]"
NA,canvas-keyboard-response,355,234610,0.0-6.0-1.58,5015,NA,NA,NA,NA,clear_screen,null,null,NA,NA,critical,d,t,c,164,240,164,240,240,164,trueblood,0,h,164,240,240,164,164,240,39360,39360,39360,dc,null,null,null,null,null,null,"[1,3]"
NA,canvas-keyboard-response,356,235958,0.0-6.0-2.58,5015,NA,NA,NA,NA,rectangles,null,null,NA,NA,critical,d,t,c,164,240,164,240,240,164,trueblood,0,h,164,240,240,164,164,240,39360,39360,39360,dc,null,null,null,null,null,null,"[1,3]"
NA,canvas-keyboard-response,357,236132,0.0-6.0-3.58,5015,NA,NA,NA,NA,clear_screen,null,null,NA,NA,critical,d,t,c,164,240,164,240,240,164,trueblood,0,h,164,240,240,164,164,240,39360,39360,39360,dc,null,null,null,null,null,null,"[1,3]"
NA,canvas-keyboard-response,358,236896,0.0-6.0-4.58,5015,NA,NA,NA,NA,make choice,741,3,NA,NA,critical,d,t,c,164,240,164,240,240,164,trueblood,0,h,164,240,240,164,164,240,39360,39360,39360,dc,null,null,null,null,null,null,"[1,3]"
NA,canvas-keyboard-response,359,237067,0.0-6.0-5.58,5015,NA,NA,NA,NA,clear_screen,null,null,NA,NA,critical,d,t,c,164,240,164,240,240,164,trueblood,0,h,164,240,240,164,164,240,39360,39360,39360,dc,null,null,null,null,null,null,"[1,3]"
NA,canvas-keyboard-response,360,237284,0.0-6.0-0.59,5015,NA,NA,NA,NA,pre trial waiting period,null,null,NA,NA,critical,d,t,c,154.6796,220.0396,164,240,240,164,spektor,0.14,h,164,240,240,164,154.6796,220.0396,39360,39360,34035.6388,tc,null,null,null,null,null,null,"[2,3]"
NA,canvas-keyboard-response,361,237439,0.0-6.0-1.59,5015,NA,NA,NA,NA,clear_screen,null,null,NA,NA,critical,d,t,c,154.6796,220.0396,164,240,240,164,spektor,0.14,h,164,240,240,164,154.6796,220.0396,39360,39360,34035.6388,tc,null,null,null,null,null,null,"[2,3]"
NA,canvas-keyboard-response,362,238788,0.0-6.0-2.59,5015,NA,NA,NA,NA,rectangles,null,null,NA,NA,critical,d,t,c,154.6796,220.0396,164,240,240,164,spektor,0.14,h,164,240,240,164,154.6796,220.0396,39360,39360,34035.6388,tc,null,null,null,null,null,null,"[2,3]"
NA,canvas-keyboard-response,363,238960,0.0-6.0-3.59,5015,NA,NA,NA,NA,clear_screen,null,null,NA,NA,critical,d,t,c,154.6796,220.0396,164,240,240,164,spektor,0.14,h,164,240,240,164,154.6796,220.0396,39360,39360,34035.6388,tc,null,null,null,null,null,null,"[2,3]"
NA,canvas-keyboard-response,364,239528,0.0-6.0-4.59,5015,NA,NA,NA,NA,make choice,546,2,NA,NA,critical,d,t,c,154.6796,220.0396,164,240,240,164,spektor,0.14,h,164,240,240,164,154.6796,220.0396,39360,39360,34035.6388,tc,null,null,null,null,null,null,"[2,3]"
NA,canvas-keyboard-response,365,239698,0.0-6.0-5.59,5015,NA,NA,NA,NA,clear_screen,null,null,NA,NA,critical,d,t,c,154.6796,220.0396,164,240,240,164,spektor,0.14,h,164,240,240,164,154.6796,220.0396,39360,39360,34035.6388,tc,null,null,null,null,null,null,"[2,3]"
NA,canvas-keyboard-response,366,239914,0.0-6.0-0.60,5015,NA,NA,NA,NA,pre trial waiting period,null,null,NA,NA,critical,t,d,c,240,164,232.8713,160.6713,164,240,spektor,0.05,w,240,164,164,240,232.8713,160.6713,39360,39360,37415.7294,dc,null,null,null,null,null,null,"[2,3]"
NA,canvas-keyboard-response,367,240073,0.0-6.0-1.60,5015,NA,NA,NA,NA,clear_screen,null,null,NA,NA,critical,t,d,c,240,164,232.8713,160.6713,164,240,spektor,0.05,w,240,164,164,240,232.8713,160.6713,39360,39360,37415.7294,dc,null,null,null,null,null,null,"[2,3]"
NA,canvas-keyboard-response,368,241422,0.0-6.0-2.60,5015,NA,NA,NA,NA,rectangles,null,null,NA,NA,critical,t,d,c,240,164,232.8713,160.6713,164,240,spektor,0.05,w,240,164,164,240,232.8713,160.6713,39360,39360,37415.7294,dc,null,null,null,null,null,null,"[2,3]"
NA,canvas-keyboard-response,369,241594,0.0-6.0-3.60,5015,NA,NA,NA,NA,clear_screen,null,null,NA,NA,critical,t,d,c,240,164,232.8713,160.6713,164,240,spektor,0.05,w,240,164,164,240,232.8713,160.6713,39360,39360,37415.7294,dc,null,null,null,null,null,null,"[2,3]"
NA,canvas-keyboard-response,370,242280,0.0-6.0-4.60,5015,NA,NA,NA,NA,make choice,672,2,NA,NA,critical,t,d,c,240,164,232.8713,160.6713,164,240,spektor,0.05,w,240,164,164,240,232.8713,160.6713,39360,39360,37415.7294,dc,null,null,null,null,null,null,"[2,3]"
NA,canvas-keyboard-response,371,242450,0.0-6.0-5.60,5015,NA,NA,NA,NA,clear_screen,null,null,NA,NA,critical,t,d,c,240,164,232.8713,160.6713,164,240,spektor,0.05,w,240,164,164,240,232.8713,160.6713,39360,39360,37415.7294,dc,null,null,null,null,null,null,"[2,3]"
NA,canvas-keyboard-response,372,242668,0.0-6.0-0.61,5015,NA,NA,NA,NA,pre trial waiting period,null,null,NA,NA,critical,c,d,t,164,240,232.8713,160.6713,240,164,trueblood,0.05,w,240,164,164,240,232.8713,160.6713,39360,39360,37415.7294,dc,null,null,null,null,null,null,"[2,1]"
NA,canvas-keyboard-response,373,242829,0.0-6.0-1.61,5015,NA,NA,NA,NA,clear_screen,null,null,NA,NA,critical,c,d,t,164,240,232.8713,160.6713,240,164,trueblood,0.05,w,240,164,164,240,232.8713,160.6713,39360,39360,37415.7294,dc,null,null,null,null,null,null,"[2,1]"
NA,canvas-keyboard-response,374,244181,0.0-6.0-2.61,5015,NA,NA,NA,NA,rectangles,null,null,NA,NA,critical,c,d,t,164,240,232.8713,160.6713,240,164,trueblood,0.05,w,240,164,164,240,232.8713,160.6713,39360,39360,37415.7294,dc,null,null,null,null,null,null,"[2,1]"
NA,canvas-keyboard-response,375,244354,0.0-6.0-3.61,5015,NA,NA,NA,NA,clear_screen,null,null,NA,NA,critical,c,d,t,164,240,232.8713,160.6713,240,164,trueblood,0.05,w,240,164,164,240,232.8713,160.6713,39360,39360,37415.7294,dc,null,null,null,null,null,null,"[2,1]"
NA,canvas-keyboard-response,376,245445,0.0-6.0-4.61,5015,NA,NA,NA,NA,make choice,1072,1,NA,NA,critical,c,d,t,164,240,232.8713,160.6713,240,164,trueblood,0.05,w,240,164,164,240,232.8713,160.6713,39360,39360,37415.7294,dc,null,null,null,null,null,null,"[2,1]"
NA,canvas-keyboard-response,377,245613,0.0-6.0-5.61,5015,NA,NA,NA,NA,clear_screen,null,null,NA,NA,critical,c,d,t,164,240,232.8713,160.6713,240,164,trueblood,0.05,w,240,164,164,240,232.8713,160.6713,39360,39360,37415.7294,dc,null,null,null,null,null,null,"[2,1]"
NA,canvas-keyboard-response,378,245834,0.0-6.0-0.62,5015,NA,NA,NA,NA,pre trial waiting period,null,null,NA,NA,catch,sh,sw,l,217,207,207,202,251,231,spektor,null,null,null,null,null,null,null,null,null,null,null,NA,180,200,260,200,36000,52000,"[1,3]"
NA,canvas-keyboard-response,379,245990,0.0-6.0-1.62,5015,NA,NA,NA,NA,clear_screen,null,null,NA,NA,catch,sh,sw,l,217,207,207,202,251,231,spektor,null,null,null,null,null,null,null,null,null,null,null,NA,180,200,260,200,36000,52000,"[1,3]"
NA,canvas-keyboard-response,380,247338,0.0-6.0-2.62,5015,NA,NA,NA,NA,rectangles,null,null,NA,NA,catch,sh,sw,l,217,207,207,202,251,231,spektor,null,null,null,null,null,null,null,null,null,null,null,NA,180,200,260,200,36000,52000,"[1,3]"
NA,canvas-keyboard-response,381,247513,0.0-6.0-3.62,5015,NA,NA,NA,NA,clear_screen,null,null,NA,NA,catch,sh,sw,l,217,207,207,202,251,231,spektor,null,null,null,null,null,null,null,null,null,null,null,NA,180,200,260,200,36000,52000,"[1,3]"
NA,canvas-keyboard-response,382,248013,0.0-6.0-4.62,5015,NA,NA,NA,NA,make choice,480,3,NA,NA,catch,sh,sw,l,217,207,207,202,251,231,spektor,null,null,null,null,null,null,null,null,null,null,null,NA,180,200,260,200,36000,52000,"[1,3]"
NA,canvas-keyboard-response,383,248177,0.0-6.0-5.62,5015,NA,NA,NA,NA,clear_screen,null,null,NA,NA,catch,sh,sw,l,217,207,207,202,251,231,spektor,null,null,null,null,null,null,null,null,null,null,null,NA,180,200,260,200,36000,52000,"[1,3]"
NA,canvas-keyboard-response,384,248394,0.0-6.0-0.63,5015,NA,NA,NA,NA,pre trial waiting period,null,null,NA,NA,critical,d,t,c,158.0083,227.1683,164,240,240,164,spektor,0.09,h,164,240,240,164,158.0083,227.1683,39360,39360,35894.4834,tc,null,null,null,null,null,null,"[2,3]"
NA,canvas-keyboard-response,385,248553,0.0-6.0-1.63,5015,NA,NA,NA,NA,clear_screen,null,null,NA,NA,critical,d,t,c,158.0083,227.1683,164,240,240,164,spektor,0.09,h,164,240,240,164,158.0083,227.1683,39360,39360,35894.4834,tc,null,null,null,null,null,null,"[2,3]"
NA,canvas-keyboard-response,386,249905,0.0-6.0-2.63,5015,NA,NA,NA,NA,rectangles,null,null,NA,NA,critical,d,t,c,158.0083,227.1683,164,240,240,164,spektor,0.09,h,164,240,240,164,158.0083,227.1683,39360,39360,35894.4834,tc,null,null,null,null,null,null,"[2,3]"
NA,canvas-keyboard-response,387,250078,0.0-6.0-3.63,5015,NA,NA,NA,NA,clear_screen,null,null,NA,NA,critical,d,t,c,158.0083,227.1683,164,240,240,164,spektor,0.09,h,164,240,240,164,158.0083,227.1683,39360,39360,35894.4834,tc,null,null,null,null,null,null,"[2,3]"
NA,canvas-keyboard-response,388,250456,0.0-6.0-4.63,5015,NA,NA,NA,NA,make choice,353,2,NA,NA,critical,d,t,c,158.0083,227.1683,164,240,240,164,spektor,0.09,h,164,240,240,164,158.0083,227.1683,39360,39360,35894.4834,tc,null,null,null,null,null,null,"[2,3]"
NA,canvas-keyboard-response,389,250628,0.0-6.0-5.63,5015,NA,NA,NA,NA,clear_screen,null,null,NA,NA,critical,d,t,c,158.0083,227.1683,164,240,240,164,spektor,0.09,h,164,240,240,164,158.0083,227.1683,39360,39360,35894.4834,tc,null,null,null,null,null,null,"[2,3]"
NA,canvas-keyboard-response,390,250846,0.0-6.0-0.64,5015,NA,NA,NA,NA,pre trial waiting period,null,null,NA,NA,critical,t,c,d,164,240,240,164,162.6685,237.1485,spektor,0.02,h,164,240,240,164,162.6685,237.1485,39360,39360,38576.5967,tc,null,null,null,null,null,null,"[1,2]"
NA,canvas-keyboard-response,391,251008,0.0-6.0-1.64,5015,NA,NA,NA,NA,clear_screen,null,null,NA,NA,critical,t,c,d,164,240,240,164,162.6685,237.1485,spektor,0.02,h,164,240,240,164,162.6685,237.1485,39360,39360,38576.5967,tc,null,null,null,null,null,null,"[1,2]"
NA,canvas-keyboard-response,392,252354,0.0-6.0-2.64,5015,NA,NA,NA,NA,rectangles,null,null,NA,NA,critical,t,c,d,164,240,240,164,162.6685,237.1485,spektor,0.02,h,164,240,240,164,162.6685,237.1485,39360,39360,38576.5967,tc,null,null,null,null,null,null,"[1,2]"
NA,canvas-keyboard-response,393,252536,0.0-6.0-3.64,5015,NA,NA,NA,NA,clear_screen,null,null,NA,NA,critical,t,c,d,164,240,240,164,162.6685,237.1485,spektor,0.02,h,164,240,240,164,162.6685,237.1485,39360,39360,38576.5967,tc,null,null,null,null,null,null,"[1,2]"
NA,canvas-keyboard-response,394,253295,0.0-6.0-4.64,5015,NA,NA,NA,NA,make choice,746,2,NA,NA,critical,t,c,d,164,240,240,164,162.6685,237.1485,spektor,0.02,h,164,240,240,164,162.6685,237.1485,39360,39360,38576.5967,tc,null,null,null,null,null,null,"[1,2]"
NA,canvas-keyboard-response,395,253466,0.0-6.0-5.64,5015,NA,NA,NA,NA,clear_screen,null,null,NA,NA,critical,t,c,d,164,240,240,164,162.6685,237.1485,spektor,0.02,h,164,240,240,164,162.6685,237.1485,39360,39360,38576.5967,tc,null,null,null,null,null,null,"[1,2]"
NA,canvas-keyboard-response,396,253686,0.0-6.0-0.65,5015,NA,NA,NA,NA,pre trial waiting period,null,null,NA,NA,catch,sh,l,sw,177,162,171,247,146,182,trueblood,null,null,null,null,null,null,null,null,null,null,null,NA,180,200,260,200,36000,52000,"[2,3]"
NA,canvas-keyboard-response,397,253842,0.0-6.0-1.65,5015,NA,NA,NA,NA,clear_screen,null,null,NA,NA,catch,sh,l,sw,177,162,171,247,146,182,trueblood,null,null,null,null,null,null,null,null,null,null,null,NA,180,200,260,200,36000,52000,"[2,3]"
