success,trial_type,trial_index,time_elapsed,internal_node_id,sub_n,timeout,failed_images,failed_audio,failed_video,screen_id,rt,response,stimulus,view_history,trial,r1,r2,r3,w1,h1,w2,h2,w3,h3,display,tdd,tdo,tw,th,cw,ch,dw,dh,ta,ca,da,probe,csls,csss,clls,clss,sa,la,probe_rects
TRUE,fullscreen,0,4842,0.0-0.0,62,,,,,,,,,,,,,,,,,,,,,,,,,,,,,,,,,,,,,,,
TRUE,preload,1,4862,0.0-1.0,62,FALSE,[],[],[],img preload,,,,,,,,,,,,,,,,,,,,,,,,,,,,,,,,,,
,survey-html-form,2,31596,0.0-2.0,62,,,,,enter-sub-number,26727,"{""response"":""44""}",,,,,,,,,,,,,,,,,,,,,,,,,,,,,,,,
,image-button-response,3,69690,0.0-3.0,62,,,,,,38026,0,consent.png,,,,,,,,,,,,,,,,,,,,,,,,,,,,,,,
,html-button-response,4,77339,0.0-4.0,62,,,,,intro mssg,7644,0,"<div style= ""font-size:25px;"" <p> <strong> Welcome! </strong><br> <p style=""color:#8B0000; font-size:25px;""><strong> Please do NOT exit full screen until you are done with the experiment. </strong> </p><p style=""font-size:25px;color:#8B0000;""> <strong> Your data will be lost <br> if you try to go back or refresh the page after the experiment starts. Feel free to click ""previous"" during the instructions, however.</strong> </p><br><p> <strong> Thanks in advance for your contribution to our research! </strong></p>",,,,,,,,,,,,,,,,,,,,,,,,,,,,,,,
,instructions,5,142177,0.0-5.0,62,,,,,instructions,64832,,,"[{""page_index"":0,""viewing_time"":13535},{""page_index"":1,""viewing_time"":12138},{""page_index"":2,""viewing_time"":4014},{""page_index"":3,""viewing_time"":16066},{""page_index"":4,""viewing_time"":6462},{""page_index"":5,""viewing_time"":4448},{""page_index"":6,""viewing_time"":5001},{""page_index"":7,""viewing_time"":3167}]",,,,,,,,,,,,,,,,,,,,,,,,,,,,,,
,canvas-keyboard-response,6,142385,0.0-6.0-0.0,62,,,,,pre trial waiting period,null,null,,,critical,c,d,t,240,164,162.6685,237.1485,164,240,spektor,0.02,h,164,240,240,164,162.6685,237.1485,39360,39360,38576.5967,td,null,null,null,null,null,null,"[3,2]"
,canvas-keyboard-response,7,142551,0.0-6.0-1.0,62,,,,,clear_screen,null,null,,,critical,c,d,t,240,164,162.6685,237.1485,164,240,spektor,0.02,h,164,240,240,164,162.6685,237.1485,39360,39360,38576.5967,td,null,null,null,null,null,null,"[3,2]"
,canvas-keyboard-response,8,143891,0.0-6.0-2.0,62,,,,,rectangles,null,null,,,critical,c,d,t,240,164,162.6685,237.1485,164,240,spektor,0.02,h,164,240,240,164,162.6685,237.1485,39360,39360,38576.5967,td,null,null,null,null,null,null,"[3,2]"
,canvas-keyboard-response,9,144050,0.0-6.0-3.0,62,,,,,clear_screen,null,null,,,critical,c,d,t,240,164,162.6685,237.1485,164,240,spektor,0.02,h,164,240,240,164,162.6685,237.1485,39360,39360,38576.5967,td,null,null,null,null,null,null,"[3,2]"
,canvas-keyboard-response,10,146810,0.0-6.0-4.0,62,,,,,make choice,2750,3,,,critical,c,d,t,240,164,162.6685,237.1485,164,240,spektor,0.02,h,164,240,240,164,162.6685,237.1485,39360,39360,38576.5967,td,null,null,null,null,null,null,"[3,2]"
,canvas-keyboard-response,11,146969,0.0-6.0-5.0,62,,,,,clear_screen,null,null,,,critical,c,d,t,240,164,162.6685,237.1485,164,240,spektor,0.02,h,164,240,240,164,162.6685,237.1485,39360,39360,38576.5967,td,null,null,null,null,null,null,"[3,2]"
,canvas-keyboard-response,12,147173,0.0-6.0-0.1,62,,,,,pre trial waiting period,null,null,,,critical,c,t,d,240,164,164,240,164,240,trueblood,0,h,164,240,240,164,164,240,39360,39360,39360,tc,null,null,null,null,null,null,"[2,1]"
,canvas-keyboard-response,13,147333,0.0-6.0-1.1,62,,,,,clear_screen,null,null,,,critical,c,t,d,240,164,164,240,164,240,trueblood,0,h,164,240,240,164,164,240,39360,39360,39360,tc,null,null,null,null,null,null,"[2,1]"
,canvas-keyboard-response,14,148669,0.0-6.0-2.1,62,,,,,rectangles,null,null,,,critical,c,t,d,240,164,164,240,164,240,trueblood,0,h,164,240,240,164,164,240,39360,39360,39360,tc,null,null,null,null,null,null,"[2,1]"
,canvas-keyboard-response,15,148831,0.0-6.0-3.1,62,,,,,clear_screen,null,null,,,critical,c,t,d,240,164,164,240,164,240,trueblood,0,h,164,240,240,164,164,240,39360,39360,39360,tc,null,null,null,null,null,null,"[2,1]"
,canvas-keyboard-response,16,151433,0.0-6.0-4.1,62,,,,,make choice,2587,1,,,critical,c,t,d,240,164,164,240,164,240,trueblood,0,h,164,240,240,164,164,240,39360,39360,39360,tc,null,null,null,null,null,null,"[2,1]"
,canvas-keyboard-response,17,151591,0.0-6.0-5.1,62,,,,,clear_screen,null,null,,,critical,c,t,d,240,164,164,240,164,240,trueblood,0,h,164,240,240,164,164,240,39360,39360,39360,tc,null,null,null,null,null,null,"[2,1]"
,canvas-keyboard-response,18,151792,0.0-6.0-0.2,62,,,,,pre trial waiting period,null,null,,,catch,sh,sw,l,220,184,198,237,271,198,spektor,null,null,null,null,null,null,null,null,null,null,null,,180,200,260,200,36000,52000,"[1,3]"
,canvas-keyboard-response,19,151956,0.0-6.0-1.2,62,,,,,clear_screen,null,null,,,catch,sh,sw,l,220,184,198,237,271,198,spektor,null,null,null,null,null,null,null,null,null,null,null,,180,200,260,200,36000,52000,"[1,3]"
,canvas-keyboard-response,20,153294,0.0-6.0-2.2,62,,,,,rectangles,null,null,,,catch,sh,sw,l,220,184,198,237,271,198,spektor,null,null,null,null,null,null,null,null,null,null,null,,180,200,260,200,36000,52000,"[1,3]"
,canvas-keyboard-response,21,153454,0.0-6.0-3.2,62,,,,,clear_screen,null,null,,,catch,sh,sw,l,220,184,198,237,271,198,spektor,null,null,null,null,null,null,null,null,null,null,null,,180,200,260,200,36000,52000,"[1,3]"
,canvas-keyboard-response,22,155305,0.0-6.0-4.2,62,,,,,make choice,1843,3,,,catch,sh,sw,l,220,184,198,237,271,198,spektor,null,null,null,null,null,null,null,null,null,null,null,,180,200,260,200,36000,52000,"[1,3]"
,canvas-keyboard-response,23,155465,0.0-6.0-5.2,62,,,,,clear_screen,null,null,,,catch,sh,sw,l,220,184,198,237,271,198,spektor,null,null,null,null,null,null,null,null,null,null,null,,180,200,260,200,36000,52000,"[1,3]"
,canvas-keyboard-response,24,155666,0.0-6.0-0.3,62,,,,,pre trial waiting period,null,null,,,critical,c,d,t,164,240,220.0396,154.6796,240,164,trueblood,0.14,w,240,164,164,240,220.0396,154.6796,39360,39360,34035.6388,tc,null,null,null,null,null,null,"[3,1]"
,canvas-keyboard-response,25,155829,0.0-6.0-1.3,62,,,,,clear_screen,null,null,,,critical,c,d,t,164,240,220.0396,154.6796,240,164,trueblood,0.14,w,240,164,164,240,220.0396,154.6796,39360,39360,34035.6388,tc,null,null,null,null,null,null,"[3,1]"
,canvas-keyboard-response,26,157166,0.0-6.0-2.3,62,,,,,rectangles,null,null,,,critical,c,d,t,164,240,220.0396,154.6796,240,164,trueblood,0.14,w,240,164,164,240,220.0396,154.6796,39360,39360,34035.6388,tc,null,null,null,null,null,null,"[3,1]"
,canvas-keyboard-response,27,157327,0.0-6.0-3.3,62,,,,,clear_screen,null,null,,,critical,c,d,t,164,240,220.0396,154.6796,240,164,trueblood,0.14,w,240,164,164,240,220.0396,154.6796,39360,39360,34035.6388,tc,null,null,null,null,null,null,"[3,1]"
,canvas-keyboard-response,28,159593,0.0-6.0-4.3,62,,,,,make choice,2257,1,,,critical,c,d,t,164,240,220.0396,154.6796,240,164,trueblood,0.14,w,240,164,164,240,220.0396,154.6796,39360,39360,34035.6388,tc,null,null,null,null,null,null,"[3,1]"
,canvas-keyboard-response,29,159752,0.0-6.0-5.3,62,,,,,clear_screen,null,null,,,critical,c,d,t,164,240,220.0396,154.6796,240,164,trueblood,0.14,w,240,164,164,240,220.0396,154.6796,39360,39360,34035.6388,tc,null,null,null,null,null,null,"[3,1]"
,canvas-keyboard-response,30,159954,0.0-6.0-0.4,62,,,,,pre trial waiting period,null,null,,,catch,l,sh,sw,295,188,203,154,167,238,spektor,null,null,null,null,null,null,null,null,null,null,null,,180,200,260,200,36000,52000,"[1,2]"
,canvas-keyboard-response,31,160117,0.0-6.0-1.4,62,,,,,clear_screen,null,null,,,catch,l,sh,sw,295,188,203,154,167,238,spektor,null,null,null,null,null,null,null,null,null,null,null,,180,200,260,200,36000,52000,"[1,2]"
,canvas-keyboard-response,32,161456,0.0-6.0-2.4,62,,,,,rectangles,null,null,,,catch,l,sh,sw,295,188,203,154,167,238,spektor,null,null,null,null,null,null,null,null,null,null,null,,180,200,260,200,36000,52000,"[1,2]"
,canvas-keyboard-response,33,161620,0.0-6.0-3.4,62,,,,,clear_screen,null,null,,,catch,l,sh,sw,295,188,203,154,167,238,spektor,null,null,null,null,null,null,null,null,null,null,null,,180,200,260,200,36000,52000,"[1,2]"
,canvas-keyboard-response,34,163017,0.0-6.0-4.4,62,,,,,make choice,1385,1,,,catch,l,sh,sw,295,188,203,154,167,238,spektor,null,null,null,null,null,null,null,null,null,null,null,,180,200,260,200,36000,52000,"[1,2]"
,canvas-keyboard-response,35,163177,0.0-6.0-5.4,62,,,,,clear_screen,null,null,,,catch,l,sh,sw,295,188,203,154,167,238,spektor,null,null,null,null,null,null,null,null,null,null,null,,180,200,260,200,36000,52000,"[1,2]"
,canvas-keyboard-response,36,163378,0.0-6.0-0.5,62,,,,,pre trial waiting period,null,null,,,critical,d,t,c,162.6685,237.1485,164,240,240,164,trueblood,0.02,h,164,240,240,164,162.6685,237.1485,39360,39360,38576.5967,td,null,null,null,null,null,null,"[2,1]"
,canvas-keyboard-response,37,163538,0.0-6.0-1.5,62,,,,,clear_screen,null,null,,,critical,d,t,c,162.6685,237.1485,164,240,240,164,trueblood,0.02,h,164,240,240,164,162.6685,237.1485,39360,39360,38576.5967,td,null,null,null,null,null,null,"[2,1]"
,canvas-keyboard-response,38,164879,0.0-6.0-2.5,62,,,,,rectangles,null,null,,,critical,d,t,c,162.6685,237.1485,164,240,240,164,trueblood,0.02,h,164,240,240,164,162.6685,237.1485,39360,39360,38576.5967,td,null,null,null,null,null,null,"[2,1]"
,canvas-keyboard-response,39,165044,0.0-6.0-3.5,62,,,,,clear_screen,null,null,,,critical,d,t,c,162.6685,237.1485,164,240,240,164,trueblood,0.02,h,164,240,240,164,162.6685,237.1485,39360,39360,38576.5967,td,null,null,null,null,null,null,"[2,1]"
,canvas-keyboard-response,40,167377,0.0-6.0-4.5,62,,,,,make choice,2323,1,,,critical,d,t,c,162.6685,237.1485,164,240,240,164,trueblood,0.02,h,164,240,240,164,162.6685,237.1485,39360,39360,38576.5967,td,null,null,null,null,null,null,"[2,1]"
,canvas-keyboard-response,41,167537,0.0-6.0-5.5,62,,,,,clear_screen,null,null,,,critical,d,t,c,162.6685,237.1485,164,240,240,164,trueblood,0.02,h,164,240,240,164,162.6685,237.1485,39360,39360,38576.5967,td,null,null,null,null,null,null,"[2,1]"
,canvas-keyboard-response,42,167739,0.0-6.0-0.6,62,,,,,pre trial waiting period,null,null,,,catch,l,sh,sw,238,270,206,187,211,221,trueblood,null,null,null,null,null,null,null,null,null,null,null,,180,200,260,200,36000,52000,"[1,3]"
,canvas-keyboard-response,43,167904,0.0-6.0-1.6,62,,,,,clear_screen,null,null,,,catch,l,sh,sw,238,270,206,187,211,221,trueblood,null,null,null,null,null,null,null,null,null,null,null,,180,200,260,200,36000,52000,"[1,3]"
,canvas-keyboard-response,44,169243,0.0-6.0-2.6,62,,,,,rectangles,null,null,,,catch,l,sh,sw,238,270,206,187,211,221,trueblood,null,null,null,null,null,null,null,null,null,null,null,,180,200,260,200,36000,52000,"[1,3]"
,canvas-keyboard-response,45,169406,0.0-6.0-3.6,62,,,,,clear_screen,null,null,,,catch,l,sh,sw,238,270,206,187,211,221,trueblood,null,null,null,null,null,null,null,null,null,null,null,,180,200,260,200,36000,52000,"[1,3]"
,canvas-keyboard-response,46,170752,0.0-6.0-4.6,62,,,,,make choice,1337,1,,,catch,l,sh,sw,238,270,206,187,211,221,trueblood,null,null,null,null,null,null,null,null,null,null,null,,180,200,260,200,36000,52000,"[1,3]"
,canvas-keyboard-response,47,170913,0.0-6.0-5.6,62,,,,,clear_screen,null,null,,,catch,l,sh,sw,238,270,206,187,211,221,trueblood,null,null,null,null,null,null,null,null,null,null,null,,180,200,260,200,36000,52000,"[1,3]"
,canvas-keyboard-response,48,171115,0.0-6.0-0.7,62,,,,,pre trial waiting period,null,null,,,critical,d,t,c,227.1683,158.0083,240,164,164,240,trueblood,0.09,w,240,164,164,240,227.1683,158.0083,39360,39360,35894.4834,dc,null,null,null,null,null,null,"[1,3]"
,canvas-keyboard-response,49,171277,0.0-6.0-1.7,62,,,,,clear_screen,null,null,,,critical,d,t,c,227.1683,158.0083,240,164,164,240,trueblood,0.09,w,240,164,164,240,227.1683,158.0083,39360,39360,35894.4834,dc,null,null,null,null,null,null,"[1,3]"
,canvas-keyboard-response,50,172616,0.0-6.0-2.7,62,,,,,rectangles,null,null,,,critical,d,t,c,227.1683,158.0083,240,164,164,240,trueblood,0.09,w,240,164,164,240,227.1683,158.0083,39360,39360,35894.4834,dc,null,null,null,null,null,null,"[1,3]"
,canvas-keyboard-response,51,172780,0.0-6.0-3.7,62,,,,,clear_screen,null,null,,,critical,d,t,c,227.1683,158.0083,240,164,164,240,trueblood,0.09,w,240,164,164,240,227.1683,158.0083,39360,39360,35894.4834,dc,null,null,null,null,null,null,"[1,3]"
,canvas-keyboard-response,52,173992,0.0-6.0-4.7,62,,,,,make choice,1202,1,,,critical,d,t,c,227.1683,158.0083,240,164,164,240,trueblood,0.09,w,240,164,164,240,227.1683,158.0083,39360,39360,35894.4834,dc,null,null,null,null,null,null,"[1,3]"
,canvas-keyboard-response,53,174151,0.0-6.0-5.7,62,,,,,clear_screen,null,null,,,critical,d,t,c,227.1683,158.0083,240,164,164,240,trueblood,0.09,w,240,164,164,240,227.1683,158.0083,39360,39360,35894.4834,dc,null,null,null,null,null,null,"[1,3]"
,canvas-keyboard-response,54,174352,0.0-6.0-0.8,62,,,,,pre trial waiting period,null,null,,,critical,t,d,c,164,240,154.6796,220.0396,240,164,spektor,0.14,h,164,240,240,164,154.6796,220.0396,39360,39360,34035.6388,dc,null,null,null,null,null,null,"[2,3]"
,canvas-keyboard-response,55,174514,0.0-6.0-1.8,62,,,,,clear_screen,null,null,,,critical,t,d,c,164,240,154.6796,220.0396,240,164,spektor,0.14,h,164,240,240,164,154.6796,220.0396,39360,39360,34035.6388,dc,null,null,null,null,null,null,"[2,3]"
,canvas-keyboard-response,56,175850,0.0-6.0-2.8,62,,,,,rectangles,null,null,,,critical,t,d,c,164,240,154.6796,220.0396,240,164,spektor,0.14,h,164,240,240,164,154.6796,220.0396,39360,39360,34035.6388,dc,null,null,null,null,null,null,"[2,3]"
,canvas-keyboard-response,57,176011,0.0-6.0-3.8,62,,,,,clear_screen,null,null,,,critical,t,d,c,164,240,154.6796,220.0396,240,164,spektor,0.14,h,164,240,240,164,154.6796,220.0396,39360,39360,34035.6388,dc,null,null,null,null,null,null,"[2,3]"
,canvas-keyboard-response,58,177433,0.0-6.0-4.8,62,,,,,make choice,1413,2,,,critical,t,d,c,164,240,154.6796,220.0396,240,164,spektor,0.14,h,164,240,240,164,154.6796,220.0396,39360,39360,34035.6388,dc,null,null,null,null,null,null,"[2,3]"
,canvas-keyboard-response,59,177593,0.0-6.0-5.8,62,,,,,clear_screen,null,null,,,critical,t,d,c,164,240,154.6796,220.0396,240,164,spektor,0.14,h,164,240,240,164,154.6796,220.0396,39360,39360,34035.6388,dc,null,null,null,null,null,null,"[2,3]"
,canvas-keyboard-response,60,177794,0.0-6.0-0.9,62,,,,,pre trial waiting period,null,null,,,critical,t,c,d,240,164,164,240,240,164,spektor,0,w,240,164,164,240,240,164,39360,39360,39360,td,null,null,null,null,null,null,"[1,3]"
,canvas-keyboard-response,61,177955,0.0-6.0-1.9,62,,,,,clear_screen,null,null,,,critical,t,c,d,240,164,164,240,240,164,spektor,0,w,240,164,164,240,240,164,39360,39360,39360,td,null,null,null,null,null,null,"[1,3]"
,canvas-keyboard-response,62,179290,0.0-6.0-2.9,62,,,,,rectangles,null,null,,,critical,t,c,d,240,164,164,240,240,164,spektor,0,w,240,164,164,240,240,164,39360,39360,39360,td,null,null,null,null,null,null,"[1,3]"
,canvas-keyboard-response,63,179451,0.0-6.0-3.9,62,,,,,clear_screen,null,null,,,critical,t,c,d,240,164,164,240,240,164,spektor,0,w,240,164,164,240,240,164,39360,39360,39360,td,null,null,null,null,null,null,"[1,3]"
,canvas-keyboard-response,64,181353,0.0-6.0-4.9,62,,,,,make choice,1892,1,,,critical,t,c,d,240,164,164,240,240,164,spektor,0,w,240,164,164,240,240,164,39360,39360,39360,td,null,null,null,null,null,null,"[1,3]"
,canvas-keyboard-response,65,181512,0.0-6.0-5.9,62,,,,,clear_screen,null,null,,,critical,t,c,d,240,164,164,240,240,164,spektor,0,w,240,164,164,240,240,164,39360,39360,39360,td,null,null,null,null,null,null,"[1,3]"
,canvas-keyboard-response,66,181714,0.0-6.0-0.10,62,,,,,pre trial waiting period,null,null,,,critical,c,t,d,240,164,164,240,160.6713,232.8713,spektor,0.05,h,164,240,240,164,160.6713,232.8713,39360,39360,37415.7294,td,null,null,null,null,null,null,"[2,3]"
,canvas-keyboard-response,67,181877,0.0-6.0-1.10,62,,,,,clear_screen,null,null,,,critical,c,t,d,240,164,164,240,160.6713,232.8713,spektor,0.05,h,164,240,240,164,160.6713,232.8713,39360,39360,37415.7294,td,null,null,null,null,null,null,"[2,3]"
,canvas-keyboard-response,68,183212,0.0-6.0-2.10,62,,,,,rectangles,null,null,,,critical,c,t,d,240,164,164,240,160.6713,232.8713,spektor,0.05,h,164,240,240,164,160.6713,232.8713,39360,39360,37415.7294,td,null,null,null,null,null,null,"[2,3]"
,canvas-keyboard-response,69,183372,0.0-6.0-3.10,62,,,,,clear_screen,null,null,,,critical,c,t,d,240,164,164,240,160.6713,232.8713,spektor,0.05,h,164,240,240,164,160.6713,232.8713,39360,39360,37415.7294,td,null,null,null,null,null,null,"[2,3]"
,canvas-keyboard-response,70,184065,0.0-6.0-4.10,62,,,,,make choice,679,2,,,critical,c,t,d,240,164,164,240,160.6713,232.8713,spektor,0.05,h,164,240,240,164,160.6713,232.8713,39360,39360,37415.7294,td,null,null,null,null,null,null,"[2,3]"
,canvas-keyboard-response,71,184224,0.0-6.0-5.10,62,,,,,clear_screen,null,null,,,critical,c,t,d,240,164,164,240,160.6713,232.8713,spektor,0.05,h,164,240,240,164,160.6713,232.8713,39360,39360,37415.7294,td,null,null,null,null,null,null,"[2,3]"
,canvas-keyboard-response,72,184426,0.0-6.0-0.11,62,,,,,pre trial waiting period,null,null,,,critical,d,c,t,220.0396,154.6796,164,240,240,164,spektor,0.14,w,240,164,164,240,220.0396,154.6796,39360,39360,34035.6388,td,null,null,null,null,null,null,"[3,1]"
,canvas-keyboard-response,73,184588,0.0-6.0-1.11,62,,,,,clear_screen,null,null,,,critical,d,c,t,220.0396,154.6796,164,240,240,164,spektor,0.14,w,240,164,164,240,220.0396,154.6796,39360,39360,34035.6388,td,null,null,null,null,null,null,"[3,1]"
,canvas-keyboard-response,74,185924,0.0-6.0-2.11,62,,,,,rectangles,null,null,,,critical,d,c,t,220.0396,154.6796,164,240,240,164,spektor,0.14,w,240,164,164,240,220.0396,154.6796,39360,39360,34035.6388,td,null,null,null,null,null,null,"[3,1]"
,canvas-keyboard-response,75,186084,0.0-6.0-3.11,62,,,,,clear_screen,null,null,,,critical,d,c,t,220.0396,154.6796,164,240,240,164,spektor,0.14,w,240,164,164,240,220.0396,154.6796,39360,39360,34035.6388,td,null,null,null,null,null,null,"[3,1]"
,canvas-keyboard-response,76,187201,0.0-6.0-4.11,62,,,,,make choice,1102,3,,,critical,d,c,t,220.0396,154.6796,164,240,240,164,spektor,0.14,w,240,164,164,240,220.0396,154.6796,39360,39360,34035.6388,td,null,null,null,null,null,null,"[3,1]"
,canvas-keyboard-response,77,187360,0.0-6.0-5.11,62,,,,,clear_screen,null,null,,,critical,d,c,t,220.0396,154.6796,164,240,240,164,spektor,0.14,w,240,164,164,240,220.0396,154.6796,39360,39360,34035.6388,td,null,null,null,null,null,null,"[3,1]"
,canvas-keyboard-response,78,187562,0.0-6.0-0.12,62,,,,,pre trial waiting period,null,null,,,critical,t,d,c,240,164,227.1683,158.0083,164,240,spektor,0.09,w,240,164,164,240,227.1683,158.0083,39360,39360,35894.4834,td,null,null,null,null,null,null,"[1,2]"
,canvas-keyboard-response,79,187722,0.0-6.0-1.12,62,,,,,clear_screen,null,null,,,critical,t,d,c,240,164,227.1683,158.0083,164,240,spektor,0.09,w,240,164,164,240,227.1683,158.0083,39360,39360,35894.4834,td,null,null,null,null,null,null,"[1,2]"
,canvas-keyboard-response,80,189057,0.0-6.0-2.12,62,,,,,rectangles,null,null,,,critical,t,d,c,240,164,227.1683,158.0083,164,240,spektor,0.09,w,240,164,164,240,227.1683,158.0083,39360,39360,35894.4834,td,null,null,null,null,null,null,"[1,2]"
,canvas-keyboard-response,81,189216,0.0-6.0-3.12,62,,,,,clear_screen,null,null,,,critical,t,d,c,240,164,227.1683,158.0083,164,240,spektor,0.09,w,240,164,164,240,227.1683,158.0083,39360,39360,35894.4834,td,null,null,null,null,null,null,"[1,2]"
,canvas-keyboard-response,82,191336,0.0-6.0-4.12,62,,,,,make choice,2106,1,,,critical,t,d,c,240,164,227.1683,158.0083,164,240,spektor,0.09,w,240,164,164,240,227.1683,158.0083,39360,39360,35894.4834,td,null,null,null,null,null,null,"[1,2]"
,canvas-keyboard-response,83,191494,0.0-6.0-5.12,62,,,,,clear_screen,null,null,,,critical,t,d,c,240,164,227.1683,158.0083,164,240,spektor,0.09,w,240,164,164,240,227.1683,158.0083,39360,39360,35894.4834,td,null,null,null,null,null,null,"[1,2]"
,canvas-keyboard-response,84,191696,0.0-6.0-0.13,62,,,,,pre trial waiting period,null,null,,,catch,sw,l,sh,180,200,244,187,187,176,trueblood,null,null,null,null,null,null,null,null,null,null,null,,180,200,260,200,36000,52000,"[2,3]"
,canvas-keyboard-response,85,191857,0.0-6.0-1.13,62,,,,,clear_screen,null,null,,,catch,sw,l,sh,180,200,244,187,187,176,trueblood,null,null,null,null,null,null,null,null,null,null,null,,180,200,260,200,36000,52000,"[2,3]"
,canvas-keyboard-response,86,193191,0.0-6.0-2.13,62,,,,,rectangles,null,null,,,catch,sw,l,sh,180,200,244,187,187,176,trueblood,null,null,null,null,null,null,null,null,null,null,null,,180,200,260,200,36000,52000,"[2,3]"
,canvas-keyboard-response,87,193356,0.0-6.0-3.13,62,,,,,clear_screen,null,null,,,catch,sw,l,sh,180,200,244,187,187,176,trueblood,null,null,null,null,null,null,null,null,null,null,null,,180,200,260,200,36000,52000,"[2,3]"
,canvas-keyboard-response,88,196753,0.0-6.0-4.13,62,,,,,make choice,3383,2,,,catch,sw,l,sh,180,200,244,187,187,176,trueblood,null,null,null,null,null,null,null,null,null,null,null,,180,200,260,200,36000,52000,"[2,3]"
,canvas-keyboard-response,89,196911,0.0-6.0-5.13,62,,,,,clear_screen,null,null,,,catch,sw,l,sh,180,200,244,187,187,176,trueblood,null,null,null,null,null,null,null,null,null,null,null,,180,200,260,200,36000,52000,"[2,3]"
,canvas-keyboard-response,90,197112,0.0-6.0-0.14,62,,,,,pre trial waiting period,null,null,,,critical,t,c,d,164,240,240,164,154.6796,220.0396,trueblood,0.14,h,164,240,240,164,154.6796,220.0396,39360,39360,34035.6388,tc,null,null,null,null,null,null,"[1,2]"
,canvas-keyboard-response,91,197274,0.0-6.0-1.14,62,,,,,clear_screen,null,null,,,critical,t,c,d,164,240,240,164,154.6796,220.0396,trueblood,0.14,h,164,240,240,164,154.6796,220.0396,39360,39360,34035.6388,tc,null,null,null,null,null,null,"[1,2]"
,canvas-keyboard-response,92,198610,0.0-6.0-2.14,62,,,,,rectangles,null,null,,,critical,t,c,d,164,240,240,164,154.6796,220.0396,trueblood,0.14,h,164,240,240,164,154.6796,220.0396,39360,39360,34035.6388,tc,null,null,null,null,null,null,"[1,2]"
,canvas-keyboard-response,93,198771,0.0-6.0-3.14,62,,,,,clear_screen,null,null,,,critical,t,c,d,164,240,240,164,154.6796,220.0396,trueblood,0.14,h,164,240,240,164,154.6796,220.0396,39360,39360,34035.6388,tc,null,null,null,null,null,null,"[1,2]"
,canvas-keyboard-response,94,200257,0.0-6.0-4.14,62,,,,,make choice,1472,2,,,critical,t,c,d,164,240,240,164,154.6796,220.0396,trueblood,0.14,h,164,240,240,164,154.6796,220.0396,39360,39360,34035.6388,tc,null,null,null,null,null,null,"[1,2]"
,canvas-keyboard-response,95,200417,0.0-6.0-5.14,62,,,,,clear_screen,null,null,,,critical,t,c,d,164,240,240,164,154.6796,220.0396,trueblood,0.14,h,164,240,240,164,154.6796,220.0396,39360,39360,34035.6388,tc,null,null,null,null,null,null,"[1,2]"
,canvas-keyboard-response,96,200618,0.0-6.0-0.15,62,,,,,pre trial waiting period,null,null,,,catch,l,sh,sw,183,243,210,180,215,226,spektor,null,null,null,null,null,null,null,null,null,null,null,,180,200,260,200,36000,52000,"[1,2]"
,canvas-keyboard-response,97,200780,0.0-6.0-1.15,62,,,,,clear_screen,null,null,,,catch,l,sh,sw,183,243,210,180,215,226,spektor,null,null,null,null,null,null,null,null,null,null,null,,180,200,260,200,36000,52000,"[1,2]"
,canvas-keyboard-response,98,202118,0.0-6.0-2.15,62,,,,,rectangles,null,null,,,catch,l,sh,sw,183,243,210,180,215,226,spektor,null,null,null,null,null,null,null,null,null,null,null,,180,200,260,200,36000,52000,"[1,2]"
,canvas-keyboard-response,99,202280,0.0-6.0-3.15,62,,,,,clear_screen,null,null,,,catch,l,sh,sw,183,243,210,180,215,226,spektor,null,null,null,null,null,null,null,null,null,null,null,,180,200,260,200,36000,52000,"[1,2]"
,canvas-keyboard-response,100,204025,0.0-6.0-4.15,62,,,,,make choice,1736,1,,,catch,l,sh,sw,183,243,210,180,215,226,spektor,null,null,null,null,null,null,null,null,null,null,null,,180,200,260,200,36000,52000,"[1,2]"
,canvas-keyboard-response,101,204188,0.0-6.0-5.15,62,,,,,clear_screen,null,null,,,catch,l,sh,sw,183,243,210,180,215,226,spektor,null,null,null,null,null,null,null,null,null,null,null,,180,200,260,200,36000,52000,"[1,2]"
,canvas-keyboard-response,102,204389,0.0-6.0-0.16,62,,,,,pre trial waiting period,null,null,,,critical,c,d,t,164,240,227.1683,158.0083,240,164,trueblood,0.09,w,240,164,164,240,227.1683,158.0083,39360,39360,35894.4834,td,null,null,null,null,null,null,"[3,2]"
,canvas-keyboard-response,103,204547,0.0-6.0-1.16,62,,,,,clear_screen,null,null,,,critical,c,d,t,164,240,227.1683,158.0083,240,164,trueblood,0.09,w,240,164,164,240,227.1683,158.0083,39360,39360,35894.4834,td,null,null,null,null,null,null,"[3,2]"
,canvas-keyboard-response,104,205888,0.0-6.0-2.16,62,,,,,rectangles,null,null,,,critical,c,d,t,164,240,227.1683,158.0083,240,164,trueblood,0.09,w,240,164,164,240,227.1683,158.0083,39360,39360,35894.4834,td,null,null,null,null,null,null,"[3,2]"
,canvas-keyboard-response,105,206049,0.0-6.0-3.16,62,,,,,clear_screen,null,null,,,critical,c,d,t,164,240,227.1683,158.0083,240,164,trueblood,0.09,w,240,164,164,240,227.1683,158.0083,39360,39360,35894.4834,td,null,null,null,null,null,null,"[3,2]"
,canvas-keyboard-response,106,207977,0.0-6.0-4.16,62,,,,,make choice,1916,2,,,critical,c,d,t,164,240,227.1683,158.0083,240,164,trueblood,0.09,w,240,164,164,240,227.1683,158.0083,39360,39360,35894.4834,td,null,null,null,null,null,null,"[3,2]"
,canvas-keyboard-response,107,208137,0.0-6.0-5.16,62,,,,,clear_screen,null,null,,,critical,c,d,t,164,240,227.1683,158.0083,240,164,trueblood,0.09,w,240,164,164,240,227.1683,158.0083,39360,39360,35894.4834,td,null,null,null,null,null,null,"[3,2]"
,canvas-keyboard-response,108,208339,0.0-6.0-0.17,62,,,,,pre trial waiting period,null,null,,,catch,l,sh,sw,274,231,222,218,197,183,trueblood,null,null,null,null,null,null,null,null,null,null,null,,180,200,260,200,36000,52000,"[1,2]"
,canvas-keyboard-response,109,208501,0.0-6.0-1.17,62,,,,,clear_screen,null,null,,,catch,l,sh,sw,274,231,222,218,197,183,trueblood,null,null,null,null,null,null,null,null,null,null,null,,180,200,260,200,36000,52000,"[1,2]"
,canvas-keyboard-response,110,209839,0.0-6.0-2.17,62,,,,,rectangles,null,null,,,catch,l,sh,sw,274,231,222,218,197,183,trueblood,null,null,null,null,null,null,null,null,null,null,null,,180,200,260,200,36000,52000,"[1,2]"
,canvas-keyboard-response,111,210003,0.0-6.0-3.17,62,,,,,clear_screen,null,null,,,catch,l,sh,sw,274,231,222,218,197,183,trueblood,null,null,null,null,null,null,null,null,null,null,null,,180,200,260,200,36000,52000,"[1,2]"
,canvas-keyboard-response,112,210864,0.0-6.0-4.17,62,,,,,make choice,847,1,,,catch,l,sh,sw,274,231,222,218,197,183,trueblood,null,null,null,null,null,null,null,null,null,null,null,,180,200,260,200,36000,52000,"[1,2]"
,canvas-keyboard-response,113,211028,0.0-6.0-5.17,62,,,,,clear_screen,null,null,,,catch,l,sh,sw,274,231,222,218,197,183,trueblood,null,null,null,null,null,null,null,null,null,null,null,,180,200,260,200,36000,52000,"[1,2]"
,canvas-keyboard-response,114,211229,0.0-6.0-0.18,62,,,,,pre trial waiting period,null,null,,,critical,d,c,t,158.0083,227.1683,240,164,164,240,spektor,0.09,h,164,240,240,164,158.0083,227.1683,39360,39360,35894.4834,td,null,null,null,null,null,null,"[3,1]"
,canvas-keyboard-response,115,211390,0.0-6.0-1.18,62,,,,,clear_screen,null,null,,,critical,d,c,t,158.0083,227.1683,240,164,164,240,spektor,0.09,h,164,240,240,164,158.0083,227.1683,39360,39360,35894.4834,td,null,null,null,null,null,null,"[3,1]"
,canvas-keyboard-response,116,212726,0.0-6.0-2.18,62,,,,,rectangles,null,null,,,critical,d,c,t,158.0083,227.1683,240,164,164,240,spektor,0.09,h,164,240,240,164,158.0083,227.1683,39360,39360,35894.4834,td,null,null,null,null,null,null,"[3,1]"
,canvas-keyboard-response,117,212885,0.0-6.0-3.18,62,,,,,clear_screen,null,null,,,critical,d,c,t,158.0083,227.1683,240,164,164,240,spektor,0.09,h,164,240,240,164,158.0083,227.1683,39360,39360,35894.4834,td,null,null,null,null,null,null,"[3,1]"
,canvas-keyboard-response,118,214728,0.0-6.0-4.18,62,,,,,make choice,1832,3,,,critical,d,c,t,158.0083,227.1683,240,164,164,240,spektor,0.09,h,164,240,240,164,158.0083,227.1683,39360,39360,35894.4834,td,null,null,null,null,null,null,"[3,1]"
,canvas-keyboard-response,119,214890,0.0-6.0-5.18,62,,,,,clear_screen,null,null,,,critical,d,c,t,158.0083,227.1683,240,164,164,240,spektor,0.09,h,164,240,240,164,158.0083,227.1683,39360,39360,35894.4834,td,null,null,null,null,null,null,"[3,1]"
,canvas-keyboard-response,120,215091,0.0-6.0-0.19,62,,,,,pre trial waiting period,null,null,,,critical,d,t,c,220.0396,154.6796,240,164,164,240,spektor,0.14,w,240,164,164,240,220.0396,154.6796,39360,39360,34035.6388,dc,null,null,null,null,null,null,"[1,3]"
,canvas-keyboard-response,121,215255,0.0-6.0-1.19,62,,,,,clear_screen,null,null,,,critical,d,t,c,220.0396,154.6796,240,164,164,240,spektor,0.14,w,240,164,164,240,220.0396,154.6796,39360,39360,34035.6388,dc,null,null,null,null,null,null,"[1,3]"
,canvas-keyboard-response,122,216593,0.0-6.0-2.19,62,,,,,rectangles,null,null,,,critical,d,t,c,220.0396,154.6796,240,164,164,240,spektor,0.14,w,240,164,164,240,220.0396,154.6796,39360,39360,34035.6388,dc,null,null,null,null,null,null,"[1,3]"
,canvas-keyboard-response,123,216753,0.0-6.0-3.19,62,,,,,clear_screen,null,null,,,critical,d,t,c,220.0396,154.6796,240,164,164,240,spektor,0.14,w,240,164,164,240,220.0396,154.6796,39360,39360,34035.6388,dc,null,null,null,null,null,null,"[1,3]"
,canvas-keyboard-response,124,217745,0.0-6.0-4.19,62,,,,,make choice,980,3,,,critical,d,t,c,220.0396,154.6796,240,164,164,240,spektor,0.14,w,240,164,164,240,220.0396,154.6796,39360,39360,34035.6388,dc,null,null,null,null,null,null,"[1,3]"
,canvas-keyboard-response,125,217905,0.0-6.0-5.19,62,,,,,clear_screen,null,null,,,critical,d,t,c,220.0396,154.6796,240,164,164,240,spektor,0.14,w,240,164,164,240,220.0396,154.6796,39360,39360,34035.6388,dc,null,null,null,null,null,null,"[1,3]"
,canvas-keyboard-response,126,218106,0.0-6.0-0.20,62,,,,,pre trial waiting period,null,null,,,catch,l,sw,sh,166,253,196,193,174,193,spektor,null,null,null,null,null,null,null,null,null,null,null,,180,200,260,200,36000,52000,"[1,3]"
,canvas-keyboard-response,127,218267,0.0-6.0-1.20,62,,,,,clear_screen,null,null,,,catch,l,sw,sh,166,253,196,193,174,193,spektor,null,null,null,null,null,null,null,null,null,null,null,,180,200,260,200,36000,52000,"[1,3]"
,canvas-keyboard-response,128,219606,0.0-6.0-2.20,62,,,,,rectangles,null,null,,,catch,l,sw,sh,166,253,196,193,174,193,spektor,null,null,null,null,null,null,null,null,null,null,null,,180,200,260,200,36000,52000,"[1,3]"
,canvas-keyboard-response,129,219767,0.0-6.0-3.20,62,,,,,clear_screen,null,null,,,catch,l,sw,sh,166,253,196,193,174,193,spektor,null,null,null,null,null,null,null,null,null,null,null,,180,200,260,200,36000,52000,"[1,3]"
,canvas-keyboard-response,130,220640,0.0-6.0-4.20,62,,,,,make choice,865,1,,,catch,l,sw,sh,166,253,196,193,174,193,spektor,null,null,null,null,null,null,null,null,null,null,null,,180,200,260,200,36000,52000,"[1,3]"
,canvas-keyboard-response,131,220798,0.0-6.0-5.20,62,,,,,clear_screen,null,null,,,catch,l,sw,sh,166,253,196,193,174,193,spektor,null,null,null,null,null,null,null,null,null,null,null,,180,200,260,200,36000,52000,"[1,3]"
,canvas-keyboard-response,132,221000,0.0-6.0-0.21,62,,,,,pre trial waiting period,null,null,,,catch,l,sw,sh,170,268,214,175,230,216,spektor,null,null,null,null,null,null,null,null,null,null,null,,180,200,260,200,36000,52000,"[1,3]"
,canvas-keyboard-response,133,221163,0.0-6.0-1.21,62,,,,,clear_screen,null,null,,,catch,l,sw,sh,170,268,214,175,230,216,spektor,null,null,null,null,null,null,null,null,null,null,null,,180,200,260,200,36000,52000,"[1,3]"
,canvas-keyboard-response,134,222500,0.0-6.0-2.21,62,,,,,rectangles,null,null,,,catch,l,sw,sh,170,268,214,175,230,216,spektor,null,null,null,null,null,null,null,null,null,null,null,,180,200,260,200,36000,52000,"[1,3]"
,canvas-keyboard-response,135,222660,0.0-6.0-3.21,62,,,,,clear_screen,null,null,,,catch,l,sw,sh,170,268,214,175,230,216,spektor,null,null,null,null,null,null,null,null,null,null,null,,180,200,260,200,36000,52000,"[1,3]"
,canvas-keyboard-response,136,223625,0.0-6.0-4.21,62,,,,,make choice,950,3,,,catch,l,sw,sh,170,268,214,175,230,216,spektor,null,null,null,null,null,null,null,null,null,null,null,,180,200,260,200,36000,52000,"[1,3]"
,canvas-keyboard-response,137,223785,0.0-6.0-5.21,62,,,,,clear_screen,null,null,,,catch,l,sw,sh,170,268,214,175,230,216,spektor,null,null,null,null,null,null,null,null,null,null,null,,180,200,260,200,36000,52000,"[1,3]"
,canvas-keyboard-response,138,223986,0.0-6.0-0.22,62,,,,,pre trial waiting period,null,null,,,critical,d,t,c,160.6713,232.8713,164,240,240,164,spektor,0.05,h,164,240,240,164,160.6713,232.8713,39360,39360,37415.7294,dc,null,null,null,null,null,null,"[1,3]"
,canvas-keyboard-response,139,224147,0.0-6.0-1.22,62,,,,,clear_screen,null,null,,,critical,d,t,c,160.6713,232.8713,164,240,240,164,spektor,0.05,h,164,240,240,164,160.6713,232.8713,39360,39360,37415.7294,dc,null,null,null,null,null,null,"[1,3]"
,canvas-keyboard-response,140,225488,0.0-6.0-2.22,62,,,,,rectangles,null,null,,,critical,d,t,c,160.6713,232.8713,164,240,240,164,spektor,0.05,h,164,240,240,164,160.6713,232.8713,39360,39360,37415.7294,dc,null,null,null,null,null,null,"[1,3]"
,canvas-keyboard-response,141,225649,0.0-6.0-3.22,62,,,,,clear_screen,null,null,,,critical,d,t,c,160.6713,232.8713,164,240,240,164,spektor,0.05,h,164,240,240,164,160.6713,232.8713,39360,39360,37415.7294,dc,null,null,null,null,null,null,"[1,3]"
,canvas-keyboard-response,142,227305,0.0-6.0-4.22,62,,,,,make choice,1647,1,,,critical,d,t,c,160.6713,232.8713,164,240,240,164,spektor,0.05,h,164,240,240,164,160.6713,232.8713,39360,39360,37415.7294,dc,null,null,null,null,null,null,"[1,3]"
,canvas-keyboard-response,143,227465,0.0-6.0-5.22,62,,,,,clear_screen,null,null,,,critical,d,t,c,160.6713,232.8713,164,240,240,164,spektor,0.05,h,164,240,240,164,160.6713,232.8713,39360,39360,37415.7294,dc,null,null,null,null,null,null,"[1,3]"
,canvas-keyboard-response,144,227667,0.0-6.0-0.23,62,,,,,pre trial waiting period,null,null,,,critical,t,c,d,164,240,240,164,154.6796,220.0396,trueblood,0.14,h,164,240,240,164,154.6796,220.0396,39360,39360,34035.6388,dc,null,null,null,null,null,null,"[3,2]"
,canvas-keyboard-response,145,227827,0.0-6.0-1.23,62,,,,,clear_screen,null,null,,,critical,t,c,d,164,240,240,164,154.6796,220.0396,trueblood,0.14,h,164,240,240,164,154.6796,220.0396,39360,39360,34035.6388,dc,null,null,null,null,null,null,"[3,2]"
,canvas-keyboard-response,146,229165,0.0-6.0-2.23,62,,,,,rectangles,null,null,,,critical,t,c,d,164,240,240,164,154.6796,220.0396,trueblood,0.14,h,164,240,240,164,154.6796,220.0396,39360,39360,34035.6388,dc,null,null,null,null,null,null,"[3,2]"
,canvas-keyboard-response,147,229325,0.0-6.0-3.23,62,,,,,clear_screen,null,null,,,critical,t,c,d,164,240,240,164,154.6796,220.0396,trueblood,0.14,h,164,240,240,164,154.6796,220.0396,39360,39360,34035.6388,dc,null,null,null,null,null,null,"[3,2]"
,canvas-keyboard-response,148,230480,0.0-6.0-4.23,62,,,,,make choice,1146,2,,,critical,t,c,d,164,240,240,164,154.6796,220.0396,trueblood,0.14,h,164,240,240,164,154.6796,220.0396,39360,39360,34035.6388,dc,null,null,null,null,null,null,"[3,2]"
,canvas-keyboard-response,149,230641,0.0-6.0-5.23,62,,,,,clear_screen,null,null,,,critical,t,c,d,164,240,240,164,154.6796,220.0396,trueblood,0.14,h,164,240,240,164,154.6796,220.0396,39360,39360,34035.6388,dc,null,null,null,null,null,null,"[3,2]"
,canvas-keyboard-response,150,230841,0.0-6.0-0.24,62,,,,,pre trial waiting period,null,null,,,catch,l,sw,sh,198,236,156,227,221,174,spektor,null,null,null,null,null,null,null,null,null,null,null,,180,200,260,200,36000,52000,"[1,2]"
,canvas-keyboard-response,151,231002,0.0-6.0-1.24,62,,,,,clear_screen,null,null,,,catch,l,sw,sh,198,236,156,227,221,174,spektor,null,null,null,null,null,null,null,null,null,null,null,,180,200,260,200,36000,52000,"[1,2]"
,canvas-keyboard-response,152,232339,0.0-6.0-2.24,62,,,,,rectangles,null,null,,,catch,l,sw,sh,198,236,156,227,221,174,spektor,null,null,null,null,null,null,null,null,null,null,null,,180,200,260,200,36000,52000,"[1,2]"
,canvas-keyboard-response,153,232503,0.0-6.0-3.24,62,,,,,clear_screen,null,null,,,catch,l,sw,sh,198,236,156,227,221,174,spektor,null,null,null,null,null,null,null,null,null,null,null,,180,200,260,200,36000,52000,"[1,2]"
,canvas-keyboard-response,154,234793,0.0-6.0-4.24,62,,,,,make choice,2280,1,,,catch,l,sw,sh,198,236,156,227,221,174,spektor,null,null,null,null,null,null,null,null,null,null,null,,180,200,260,200,36000,52000,"[1,2]"
,canvas-keyboard-response,155,234953,0.0-6.0-5.24,62,,,,,clear_screen,null,null,,,catch,l,sw,sh,198,236,156,227,221,174,spektor,null,null,null,null,null,null,null,null,null,null,null,,180,200,260,200,36000,52000,"[1,2]"
,canvas-keyboard-response,156,235154,0.0-6.0-0.25,62,,,,,pre trial waiting period,null,null,,,catch,sh,l,sw,239,179,235,278,200,203,trueblood,null,null,null,null,null,null,null,null,null,null,null,,180,200,260,200,36000,52000,"[2,3]"
,canvas-keyboard-response,157,235316,0.0-6.0-1.25,62,,,,,clear_screen,null,null,,,catch,sh,l,sw,239,179,235,278,200,203,trueblood,null,null,null,null,null,null,null,null,null,null,null,,180,200,260,200,36000,52000,"[2,3]"
,canvas-keyboard-response,158,236655,0.0-6.0-2.25,62,,,,,rectangles,null,null,,,catch,sh,l,sw,239,179,235,278,200,203,trueblood,null,null,null,null,null,null,null,null,null,null,null,,180,200,260,200,36000,52000,"[2,3]"
,canvas-keyboard-response,159,236818,0.0-6.0-3.25,62,,,,,clear_screen,null,null,,,catch,sh,l,sw,239,179,235,278,200,203,trueblood,null,null,null,null,null,null,null,null,null,null,null,,180,200,260,200,36000,52000,"[2,3]"
,canvas-keyboard-response,160,239257,0.0-6.0-4.25,62,,,,,make choice,2429,2,,,catch,sh,l,sw,239,179,235,278,200,203,trueblood,null,null,null,null,null,null,null,null,null,null,null,,180,200,260,200,36000,52000,"[2,3]"
,canvas-keyboard-response,161,239415,0.0-6.0-5.25,62,,,,,clear_screen,null,null,,,catch,sh,l,sw,239,179,235,278,200,203,trueblood,null,null,null,null,null,null,null,null,null,null,null,,180,200,260,200,36000,52000,"[2,3]"
,canvas-keyboard-response,162,239616,0.0-6.0-0.26,62,,,,,pre trial waiting period,null,null,,,critical,d,t,c,164,240,164,240,240,164,trueblood,0,h,164,240,240,164,164,240,39360,39360,39360,dc,null,null,null,null,null,null,"[1,3]"
,canvas-keyboard-response,163,239776,0.0-6.0-1.26,62,,,,,clear_screen,null,null,,,critical,d,t,c,164,240,164,240,240,164,trueblood,0,h,164,240,240,164,164,240,39360,39360,39360,dc,null,null,null,null,null,null,"[1,3]"
,canvas-keyboard-response,164,241109,0.0-6.0-2.26,62,,,,,rectangles,null,null,,,critical,d,t,c,164,240,164,240,240,164,trueblood,0,h,164,240,240,164,164,240,39360,39360,39360,dc,null,null,null,null,null,null,"[1,3]"
,canvas-keyboard-response,165,241269,0.0-6.0-3.26,62,,,,,clear_screen,null,null,,,critical,d,t,c,164,240,164,240,240,164,trueblood,0,h,164,240,240,164,164,240,39360,39360,39360,dc,null,null,null,null,null,null,"[1,3]"
,canvas-keyboard-response,166,242897,0.0-6.0-4.26,62,,,,,make choice,1617,1,,,critical,d,t,c,164,240,164,240,240,164,trueblood,0,h,164,240,240,164,164,240,39360,39360,39360,dc,null,null,null,null,null,null,"[1,3]"
,canvas-keyboard-response,167,243057,0.0-6.0-5.26,62,,,,,clear_screen,null,null,,,critical,d,t,c,164,240,164,240,240,164,trueblood,0,h,164,240,240,164,164,240,39360,39360,39360,dc,null,null,null,null,null,null,"[1,3]"
,canvas-keyboard-response,168,243258,0.0-6.0-0.27,62,,,,,pre trial waiting period,null,null,,,critical,d,c,t,237.1485,162.6685,164,240,240,164,trueblood,0.02,w,240,164,164,240,237.1485,162.6685,39360,39360,38576.5967,tc,null,null,null,null,null,null,"[3,2]"
,canvas-keyboard-response,169,243420,0.0-6.0-1.27,62,,,,,clear_screen,null,null,,,critical,d,c,t,237.1485,162.6685,164,240,240,164,trueblood,0.02,w,240,164,164,240,237.1485,162.6685,39360,39360,38576.5967,tc,null,null,null,null,null,null,"[3,2]"
,canvas-keyboard-response,170,244757,0.0-6.0-2.27,62,,,,,rectangles,null,null,,,critical,d,c,t,237.1485,162.6685,164,240,240,164,trueblood,0.02,w,240,164,164,240,237.1485,162.6685,39360,39360,38576.5967,tc,null,null,null,null,null,null,"[3,2]"
,canvas-keyboard-response,171,244921,0.0-6.0-3.27,62,,,,,clear_screen,null,null,,,critical,d,c,t,237.1485,162.6685,164,240,240,164,trueblood,0.02,w,240,164,164,240,237.1485,162.6685,39360,39360,38576.5967,tc,null,null,null,null,null,null,"[3,2]"
,canvas-keyboard-response,172,246216,0.0-6.0-4.27,62,,,,,make choice,1284,3,,,critical,d,c,t,237.1485,162.6685,164,240,240,164,trueblood,0.02,w,240,164,164,240,237.1485,162.6685,39360,39360,38576.5967,tc,null,null,null,null,null,null,"[3,2]"
,canvas-keyboard-response,173,246375,0.0-6.0-5.27,62,,,,,clear_screen,null,null,,,critical,d,c,t,237.1485,162.6685,164,240,240,164,trueblood,0.02,w,240,164,164,240,237.1485,162.6685,39360,39360,38576.5967,tc,null,null,null,null,null,null,"[3,2]"
,canvas-keyboard-response,174,246576,0.0-6.0-0.28,62,,,,,pre trial waiting period,null,null,,,catch,l,sh,sw,235,171,203,217,157,208,trueblood,null,null,null,null,null,null,null,null,null,null,null,,180,200,260,200,36000,52000,"[1,2]"
,canvas-keyboard-response,175,246740,0.0-6.0-1.28,62,,,,,clear_screen,null,null,,,catch,l,sh,sw,235,171,203,217,157,208,trueblood,null,null,null,null,null,null,null,null,null,null,null,,180,200,260,200,36000,52000,"[1,2]"
,canvas-keyboard-response,176,248077,0.0-6.0-2.28,62,,,,,rectangles,null,null,,,catch,l,sh,sw,235,171,203,217,157,208,trueblood,null,null,null,null,null,null,null,null,null,null,null,,180,200,260,200,36000,52000,"[1,2]"
,canvas-keyboard-response,177,248237,0.0-6.0-3.28,62,,,,,clear_screen,null,null,,,catch,l,sh,sw,235,171,203,217,157,208,trueblood,null,null,null,null,null,null,null,null,null,null,null,,180,200,260,200,36000,52000,"[1,2]"
,canvas-keyboard-response,178,249297,0.0-6.0-4.28,62,,,,,make choice,1049,2,,,catch,l,sh,sw,235,171,203,217,157,208,trueblood,null,null,null,null,null,null,null,null,null,null,null,,180,200,260,200,36000,52000,"[1,2]"
,canvas-keyboard-response,179,249456,0.0-6.0-5.28,62,,,,,clear_screen,null,null,,,catch,l,sh,sw,235,171,203,217,157,208,trueblood,null,null,null,null,null,null,null,null,null,null,null,,180,200,260,200,36000,52000,"[1,2]"
,canvas-keyboard-response,180,249657,0.0-6.0-0.29,62,,,,,pre trial waiting period,null,null,,,critical,t,d,c,240,164,232.8713,160.6713,164,240,trueblood,0.05,w,240,164,164,240,232.8713,160.6713,39360,39360,37415.7294,tc,null,null,null,null,null,null,"[1,3]"
,canvas-keyboard-response,181,249818,0.0-6.0-1.29,62,,,,,clear_screen,null,null,,,critical,t,d,c,240,164,232.8713,160.6713,164,240,trueblood,0.05,w,240,164,164,240,232.8713,160.6713,39360,39360,37415.7294,tc,null,null,null,null,null,null,"[1,3]"
,canvas-keyboard-response,182,251153,0.0-6.0-2.29,62,,,,,rectangles,null,null,,,critical,t,d,c,240,164,232.8713,160.6713,164,240,trueblood,0.05,w,240,164,164,240,232.8713,160.6713,39360,39360,37415.7294,tc,null,null,null,null,null,null,"[1,3]"
,canvas-keyboard-response,183,251313,0.0-6.0-3.29,62,,,,,clear_screen,null,null,,,critical,t,d,c,240,164,232.8713,160.6713,164,240,trueblood,0.05,w,240,164,164,240,232.8713,160.6713,39360,39360,37415.7294,tc,null,null,null,null,null,null,"[1,3]"
,canvas-keyboard-response,184,252249,0.0-6.0-4.29,62,,,,,make choice,923,1,,,critical,t,d,c,240,164,232.8713,160.6713,164,240,trueblood,0.05,w,240,164,164,240,232.8713,160.6713,39360,39360,37415.7294,tc,null,null,null,null,null,null,"[1,3]"
,canvas-keyboard-response,185,252408,0.0-6.0-5.29,62,,,,,clear_screen,null,null,,,critical,t,d,c,240,164,232.8713,160.6713,164,240,trueblood,0.05,w,240,164,164,240,232.8713,160.6713,39360,39360,37415.7294,tc,null,null,null,null,null,null,"[1,3]"
,canvas-keyboard-response,186,252609,0.0-6.0-0.30,62,,,,,pre trial waiting period,null,null,,,critical,d,t,c,232.8713,160.6713,240,164,164,240,trueblood,0.05,w,240,164,164,240,232.8713,160.6713,39360,39360,37415.7294,dc,null,null,null,null,null,null,"[1,3]"
,canvas-keyboard-response,187,252768,0.0-6.0-1.30,62,,,,,clear_screen,null,null,,,critical,d,t,c,232.8713,160.6713,240,164,164,240,trueblood,0.05,w,240,164,164,240,232.8713,160.6713,39360,39360,37415.7294,dc,null,null,null,null,null,null,"[1,3]"
,canvas-keyboard-response,188,254104,0.0-6.0-2.30,62,,,,,rectangles,null,null,,,critical,d,t,c,232.8713,160.6713,240,164,164,240,trueblood,0.05,w,240,164,164,240,232.8713,160.6713,39360,39360,37415.7294,dc,null,null,null,null,null,null,"[1,3]"
,canvas-keyboard-response,189,254265,0.0-6.0-3.30,62,,,,,clear_screen,null,null,,,critical,d,t,c,232.8713,160.6713,240,164,164,240,trueblood,0.05,w,240,164,164,240,232.8713,160.6713,39360,39360,37415.7294,dc,null,null,null,null,null,null,"[1,3]"
,canvas-keyboard-response,190,255824,0.0-6.0-4.30,62,,,,,make choice,1550,1,,,critical,d,t,c,232.8713,160.6713,240,164,164,240,trueblood,0.05,w,240,164,164,240,232.8713,160.6713,39360,39360,37415.7294,dc,null,null,null,null,null,null,"[1,3]"
,canvas-keyboard-response,191,255986,0.0-6.0-5.30,62,,,,,clear_screen,null,null,,,critical,d,t,c,232.8713,160.6713,240,164,164,240,trueblood,0.05,w,240,164,164,240,232.8713,160.6713,39360,39360,37415.7294,dc,null,null,null,null,null,null,"[1,3]"
,canvas-keyboard-response,192,256186,0.0-6.0-0.31,62,,,,,pre trial waiting period,null,null,,,critical,c,t,d,164,240,240,164,220.0396,154.6796,trueblood,0.14,w,240,164,164,240,220.0396,154.6796,39360,39360,34035.6388,dc,null,null,null,null,null,null,"[3,1]"
,canvas-keyboard-response,193,256349,0.0-6.0-1.31,62,,,,,clear_screen,null,null,,,critical,c,t,d,164,240,240,164,220.0396,154.6796,trueblood,0.14,w,240,164,164,240,220.0396,154.6796,39360,39360,34035.6388,dc,null,null,null,null,null,null,"[3,1]"
,canvas-keyboard-response,194,257680,0.0-6.0-2.31,62,,,,,rectangles,null,null,,,critical,c,t,d,164,240,240,164,220.0396,154.6796,trueblood,0.14,w,240,164,164,240,220.0396,154.6796,39360,39360,34035.6388,dc,null,null,null,null,null,null,"[3,1]"
,canvas-keyboard-response,195,257841,0.0-6.0-3.31,62,,,,,clear_screen,null,null,,,critical,c,t,d,164,240,240,164,220.0396,154.6796,trueblood,0.14,w,240,164,164,240,220.0396,154.6796,39360,39360,34035.6388,dc,null,null,null,null,null,null,"[3,1]"
,canvas-keyboard-response,196,259201,0.0-6.0-4.31,62,,,,,make choice,1351,1,,,critical,c,t,d,164,240,240,164,220.0396,154.6796,trueblood,0.14,w,240,164,164,240,220.0396,154.6796,39360,39360,34035.6388,dc,null,null,null,null,null,null,"[3,1]"
,canvas-keyboard-response,197,259363,0.0-6.0-5.31,62,,,,,clear_screen,null,null,,,critical,c,t,d,164,240,240,164,220.0396,154.6796,trueblood,0.14,w,240,164,164,240,220.0396,154.6796,39360,39360,34035.6388,dc,null,null,null,null,null,null,"[3,1]"
,canvas-keyboard-response,198,259565,0.0-6.0-0.32,62,,,,,pre trial waiting period,null,null,,,critical,t,c,d,164,240,240,164,158.0083,227.1683,trueblood,0.09,h,164,240,240,164,158.0083,227.1683,39360,39360,35894.4834,dc,null,null,null,null,null,null,"[3,2]"
,canvas-keyboard-response,199,259727,0.0-6.0-1.32,62,,,,,clear_screen,null,null,,,critical,t,c,d,164,240,240,164,158.0083,227.1683,trueblood,0.09,h,164,240,240,164,158.0083,227.1683,39360,39360,35894.4834,dc,null,null,null,null,null,null,"[3,2]"
,canvas-keyboard-response,200,261062,0.0-6.0-2.32,62,,,,,rectangles,null,null,,,critical,t,c,d,164,240,240,164,158.0083,227.1683,trueblood,0.09,h,164,240,240,164,158.0083,227.1683,39360,39360,35894.4834,dc,null,null,null,null,null,null,"[3,2]"
,canvas-keyboard-response,201,261226,0.0-6.0-3.32,62,,,,,clear_screen,null,null,,,critical,t,c,d,164,240,240,164,158.0083,227.1683,trueblood,0.09,h,164,240,240,164,158.0083,227.1683,39360,39360,35894.4834,dc,null,null,null,null,null,null,"[3,2]"
,canvas-keyboard-response,202,262393,0.0-6.0-4.32,62,,,,,make choice,1157,2,,,critical,t,c,d,164,240,240,164,158.0083,227.1683,trueblood,0.09,h,164,240,240,164,158.0083,227.1683,39360,39360,35894.4834,dc,null,null,null,null,null,null,"[3,2]"
,canvas-keyboard-response,203,262553,0.0-6.0-5.32,62,,,,,clear_screen,null,null,,,critical,t,c,d,164,240,240,164,158.0083,227.1683,trueblood,0.09,h,164,240,240,164,158.0083,227.1683,39360,39360,35894.4834,dc,null,null,null,null,null,null,"[3,2]"
,canvas-keyboard-response,204,262754,0.0-6.0-0.33,62,,,,,pre trial waiting period,null,null,,,critical,t,d,c,240,164,232.8713,160.6713,164,240,spektor,0.05,w,240,164,164,240,232.8713,160.6713,39360,39360,37415.7294,tc,null,null,null,null,null,null,"[1,3]"
,canvas-keyboard-response,205,262919,0.0-6.0-1.33,62,,,,,clear_screen,null,null,,,critical,t,d,c,240,164,232.8713,160.6713,164,240,spektor,0.05,w,240,164,164,240,232.8713,160.6713,39360,39360,37415.7294,tc,null,null,null,null,null,null,"[1,3]"
,canvas-keyboard-response,206,264258,0.0-6.0-2.33,62,,,,,rectangles,null,null,,,critical,t,d,c,240,164,232.8713,160.6713,164,240,spektor,0.05,w,240,164,164,240,232.8713,160.6713,39360,39360,37415.7294,tc,null,null,null,null,null,null,"[1,3]"
,canvas-keyboard-response,207,264420,0.0-6.0-3.33,62,,,,,clear_screen,null,null,,,critical,t,d,c,240,164,232.8713,160.6713,164,240,spektor,0.05,w,240,164,164,240,232.8713,160.6713,39360,39360,37415.7294,tc,null,null,null,null,null,null,"[1,3]"
,canvas-keyboard-response,208,265465,0.0-6.0-4.33,62,,,,,make choice,1031,1,,,critical,t,d,c,240,164,232.8713,160.6713,164,240,spektor,0.05,w,240,164,164,240,232.8713,160.6713,39360,39360,37415.7294,tc,null,null,null,null,null,null,"[1,3]"
,canvas-keyboard-response,209,265628,0.0-6.0-5.33,62,,,,,clear_screen,null,null,,,critical,t,d,c,240,164,232.8713,160.6713,164,240,spektor,0.05,w,240,164,164,240,232.8713,160.6713,39360,39360,37415.7294,tc,null,null,null,null,null,null,"[1,3]"
,canvas-keyboard-response,210,265830,0.0-6.0-0.34,62,,,,,pre trial waiting period,null,null,,,critical,t,d,c,240,164,220.0396,154.6796,164,240,spektor,0.14,w,240,164,164,240,220.0396,154.6796,39360,39360,34035.6388,tc,null,null,null,null,null,null,"[1,3]"
,canvas-keyboard-response,211,265993,0.0-6.0-1.34,62,,,,,clear_screen,null,null,,,critical,t,d,c,240,164,220.0396,154.6796,164,240,spektor,0.14,w,240,164,164,240,220.0396,154.6796,39360,39360,34035.6388,tc,null,null,null,null,null,null,"[1,3]"
,canvas-keyboard-response,212,267332,0.0-6.0-2.34,62,,,,,rectangles,null,null,,,critical,t,d,c,240,164,220.0396,154.6796,164,240,spektor,0.14,w,240,164,164,240,220.0396,154.6796,39360,39360,34035.6388,tc,null,null,null,null,null,null,"[1,3]"
,canvas-keyboard-response,213,267493,0.0-6.0-3.34,62,,,,,clear_screen,null,null,,,critical,t,d,c,240,164,220.0396,154.6796,164,240,spektor,0.14,w,240,164,164,240,220.0396,154.6796,39360,39360,34035.6388,tc,null,null,null,null,null,null,"[1,3]"
,canvas-keyboard-response,214,269001,0.0-6.0-4.34,62,,,,,make choice,1499,3,,,critical,t,d,c,240,164,220.0396,154.6796,164,240,spektor,0.14,w,240,164,164,240,220.0396,154.6796,39360,39360,34035.6388,tc,null,null,null,null,null,null,"[1,3]"
,canvas-keyboard-response,215,269162,0.0-6.0-5.34,62,,,,,clear_screen,null,null,,,critical,t,d,c,240,164,220.0396,154.6796,164,240,spektor,0.14,w,240,164,164,240,220.0396,154.6796,39360,39360,34035.6388,tc,null,null,null,null,null,null,"[1,3]"
,canvas-keyboard-response,216,269363,0.0-6.0-0.35,62,,,,,pre trial waiting period,null,null,,,critical,d,t,c,240,164,240,164,164,240,trueblood,0,w,240,164,164,240,240,164,39360,39360,39360,tc,null,null,null,null,null,null,"[2,3]"
,canvas-keyboard-response,217,269525,0.0-6.0-1.35,62,,,,,clear_screen,null,null,,,critical,d,t,c,240,164,240,164,164,240,trueblood,0,w,240,164,164,240,240,164,39360,39360,39360,tc,null,null,null,null,null,null,"[2,3]"
,canvas-keyboard-response,218,270862,0.0-6.0-2.35,62,,,,,rectangles,null,null,,,critical,d,t,c,240,164,240,164,164,240,trueblood,0,w,240,164,164,240,240,164,39360,39360,39360,tc,null,null,null,null,null,null,"[2,3]"
,canvas-keyboard-response,219,271021,0.0-6.0-3.35,62,,,,,clear_screen,null,null,,,critical,d,t,c,240,164,240,164,164,240,trueblood,0,w,240,164,164,240,240,164,39360,39360,39360,tc,null,null,null,null,null,null,"[2,3]"
,canvas-keyboard-response,220,271961,0.0-6.0-4.35,62,,,,,make choice,926,2,,,critical,d,t,c,240,164,240,164,164,240,trueblood,0,w,240,164,164,240,240,164,39360,39360,39360,tc,null,null,null,null,null,null,"[2,3]"
,canvas-keyboard-response,221,272124,0.0-6.0-5.35,62,,,,,clear_screen,null,null,,,critical,d,t,c,240,164,240,164,164,240,trueblood,0,w,240,164,164,240,240,164,39360,39360,39360,tc,null,null,null,null,null,null,"[2,3]"
,canvas-keyboard-response,222,272326,0.0-6.0-0.36,62,,,,,pre trial waiting period,null,null,,,catch,l,sh,sw,180,264,212,186,160,210,spektor,null,null,null,null,null,null,null,null,null,null,null,,180,200,260,200,36000,52000,"[1,3]"
,canvas-keyboard-response,223,272489,0.0-6.0-1.36,62,,,,,clear_screen,null,null,,,catch,l,sh,sw,180,264,212,186,160,210,spektor,null,null,null,null,null,null,null,null,null,null,null,,180,200,260,200,36000,52000,"[1,3]"
,canvas-keyboard-response,224,273825,0.0-6.0-2.36,62,,,,,rectangles,null,null,,,catch,l,sh,sw,180,264,212,186,160,210,spektor,null,null,null,null,null,null,null,null,null,null,null,,180,200,260,200,36000,52000,"[1,3]"
,canvas-keyboard-response,225,273988,0.0-6.0-3.36,62,,,,,clear_screen,null,null,,,catch,l,sh,sw,180,264,212,186,160,210,spektor,null,null,null,null,null,null,null,null,null,null,null,,180,200,260,200,36000,52000,"[1,3]"
,canvas-keyboard-response,226,274608,0.0-6.0-4.36,62,,,,,make choice,609,1,,,catch,l,sh,sw,180,264,212,186,160,210,spektor,null,null,null,null,null,null,null,null,null,null,null,,180,200,260,200,36000,52000,"[1,3]"
,canvas-keyboard-response,227,274769,0.0-6.0-5.36,62,,,,,clear_screen,null,null,,,catch,l,sh,sw,180,264,212,186,160,210,spektor,null,null,null,null,null,null,null,null,null,null,null,,180,200,260,200,36000,52000,"[1,3]"
,canvas-keyboard-response,228,274970,0.0-6.0-0.37,62,,,,,pre trial waiting period,null,null,,,critical,c,t,d,240,164,164,240,160.6713,232.8713,trueblood,0.05,h,164,240,240,164,160.6713,232.8713,39360,39360,37415.7294,td,null,null,null,null,null,null,"[2,3]"
,canvas-keyboard-response,229,275132,0.0-6.0-1.37,62,,,,,clear_screen,null,null,,,critical,c,t,d,240,164,164,240,160.6713,232.8713,trueblood,0.05,h,164,240,240,164,160.6713,232.8713,39360,39360,37415.7294,td,null,null,null,null,null,null,"[2,3]"
,canvas-keyboard-response,230,276470,0.0-6.0-2.37,62,,,,,rectangles,null,null,,,critical,c,t,d,240,164,164,240,160.6713,232.8713,trueblood,0.05,h,164,240,240,164,160.6713,232.8713,39360,39360,37415.7294,td,null,null,null,null,null,null,"[2,3]"
,canvas-keyboard-response,231,276632,0.0-6.0-3.37,62,,,,,clear_screen,null,null,,,critical,c,t,d,240,164,164,240,160.6713,232.8713,trueblood,0.05,h,164,240,240,164,160.6713,232.8713,39360,39360,37415.7294,td,null,null,null,null,null,null,"[2,3]"
,canvas-keyboard-response,232,278153,0.0-6.0-4.37,62,,,,,make choice,1510,2,,,critical,c,t,d,240,164,164,240,160.6713,232.8713,trueblood,0.05,h,164,240,240,164,160.6713,232.8713,39360,39360,37415.7294,td,null,null,null,null,null,null,"[2,3]"
,canvas-keyboard-response,233,278311,0.0-6.0-5.37,62,,,,,clear_screen,null,null,,,critical,c,t,d,240,164,164,240,160.6713,232.8713,trueblood,0.05,h,164,240,240,164,160.6713,232.8713,39360,39360,37415.7294,td,null,null,null,null,null,null,"[2,3]"
,canvas-keyboard-response,234,278512,0.0-6.0-0.38,62,,,,,pre trial waiting period,null,null,,,critical,d,c,t,160.6713,232.8713,240,164,164,240,trueblood,0.05,h,164,240,240,164,160.6713,232.8713,39360,39360,37415.7294,dc,null,null,null,null,null,null,"[1,2]"
,canvas-keyboard-response,235,278673,0.0-6.0-1.38,62,,,,,clear_screen,null,null,,,critical,d,c,t,160.6713,232.8713,240,164,164,240,trueblood,0.05,h,164,240,240,164,160.6713,232.8713,39360,39360,37415.7294,dc,null,null,null,null,null,null,"[1,2]"
,canvas-keyboard-response,236,280013,0.0-6.0-2.38,62,,,,,rectangles,null,null,,,critical,d,c,t,160.6713,232.8713,240,164,164,240,trueblood,0.05,h,164,240,240,164,160.6713,232.8713,39360,39360,37415.7294,dc,null,null,null,null,null,null,"[1,2]"
,canvas-keyboard-response,237,280174,0.0-6.0-3.38,62,,,,,clear_screen,null,null,,,critical,d,c,t,160.6713,232.8713,240,164,164,240,trueblood,0.05,h,164,240,240,164,160.6713,232.8713,39360,39360,37415.7294,dc,null,null,null,null,null,null,"[1,2]"
,canvas-keyboard-response,238,280985,0.0-6.0-4.38,62,,,,,make choice,801,2,,,critical,d,c,t,160.6713,232.8713,240,164,164,240,trueblood,0.05,h,164,240,240,164,160.6713,232.8713,39360,39360,37415.7294,dc,null,null,null,null,null,null,"[1,2]"
,canvas-keyboard-response,239,281145,0.0-6.0-5.38,62,,,,,clear_screen,null,null,,,critical,d,c,t,160.6713,232.8713,240,164,164,240,trueblood,0.05,h,164,240,240,164,160.6713,232.8713,39360,39360,37415.7294,dc,null,null,null,null,null,null,"[1,2]"
,canvas-keyboard-response,240,281346,0.0-6.0-0.39,62,,,,,pre trial waiting period,null,null,,,catch,l,sw,sh,280,238,214,208,167,203,spektor,null,null,null,null,null,null,null,null,null,null,null,,180,200,260,200,36000,52000,"[1,2]"
,canvas-keyboard-response,241,281513,0.0-6.0-1.39,62,,,,,clear_screen,null,null,,,catch,l,sw,sh,280,238,214,208,167,203,spektor,null,null,null,null,null,null,null,null,null,null,null,,180,200,260,200,36000,52000,"[1,2]"
,canvas-keyboard-response,242,282850,0.0-6.0-2.39,62,,,,,rectangles,null,null,,,catch,l,sw,sh,280,238,214,208,167,203,spektor,null,null,null,null,null,null,null,null,null,null,null,,180,200,260,200,36000,52000,"[1,2]"
,canvas-keyboard-response,243,283016,0.0-6.0-3.39,62,,,,,clear_screen,null,null,,,catch,l,sw,sh,280,238,214,208,167,203,spektor,null,null,null,null,null,null,null,null,null,null,null,,180,200,260,200,36000,52000,"[1,2]"
,canvas-keyboard-response,244,284122,0.0-6.0-4.39,62,,,,,make choice,1091,1,,,catch,l,sw,sh,280,238,214,208,167,203,spektor,null,null,null,null,null,null,null,null,null,null,null,,180,200,260,200,36000,52000,"[1,2]"
,canvas-keyboard-response,245,284284,0.0-6.0-5.39,62,,,,,clear_screen,null,null,,,catch,l,sw,sh,280,238,214,208,167,203,spektor,null,null,null,null,null,null,null,null,null,null,null,,180,200,260,200,36000,52000,"[1,2]"
,canvas-keyboard-response,246,284486,0.0-6.0-0.40,62,,,,,pre trial waiting period,null,null,,,critical,d,t,c,220.0396,154.6796,240,164,164,240,trueblood,0.14,w,240,164,164,240,220.0396,154.6796,39360,39360,34035.6388,td,null,null,null,null,null,null,"[2,1]"
,canvas-keyboard-response,247,284650,0.0-6.0-1.40,62,,,,,clear_screen,null,null,,,critical,d,t,c,220.0396,154.6796,240,164,164,240,trueblood,0.14,w,240,164,164,240,220.0396,154.6796,39360,39360,34035.6388,td,null,null,null,null,null,null,"[2,1]"
,canvas-keyboard-response,248,285985,0.0-6.0-2.40,62,,,,,rectangles,null,null,,,critical,d,t,c,220.0396,154.6796,240,164,164,240,trueblood,0.14,w,240,164,164,240,220.0396,154.6796,39360,39360,34035.6388,td,null,null,null,null,null,null,"[2,1]"
,canvas-keyboard-response,249,286148,0.0-6.0-3.40,62,,,,,clear_screen,null,null,,,critical,d,t,c,220.0396,154.6796,240,164,164,240,trueblood,0.14,w,240,164,164,240,220.0396,154.6796,39360,39360,34035.6388,td,null,null,null,null,null,null,"[2,1]"
,canvas-keyboard-response,250,287232,0.0-6.0-4.40,62,,,,,make choice,1074,2,,,critical,d,t,c,220.0396,154.6796,240,164,164,240,trueblood,0.14,w,240,164,164,240,220.0396,154.6796,39360,39360,34035.6388,td,null,null,null,null,null,null,"[2,1]"
,canvas-keyboard-response,251,287393,0.0-6.0-5.40,62,,,,,clear_screen,null,null,,,critical,d,t,c,220.0396,154.6796,240,164,164,240,trueblood,0.14,w,240,164,164,240,220.0396,154.6796,39360,39360,34035.6388,td,null,null,null,null,null,null,"[2,1]"
,canvas-keyboard-response,252,287594,0.0-6.0-0.41,62,,,,,pre trial waiting period,null,null,,,critical,c,d,t,164,240,227.1683,158.0083,240,164,spektor,0.09,w,240,164,164,240,227.1683,158.0083,39360,39360,35894.4834,tc,null,null,null,null,null,null,"[3,1]"
,canvas-keyboard-response,253,287754,0.0-6.0-1.41,62,,,,,clear_screen,null,null,,,critical,c,d,t,164,240,227.1683,158.0083,240,164,spektor,0.09,w,240,164,164,240,227.1683,158.0083,39360,39360,35894.4834,tc,null,null,null,null,null,null,"[3,1]"
,canvas-keyboard-response,254,289092,0.0-6.0-2.41,62,,,,,rectangles,null,null,,,critical,c,d,t,164,240,227.1683,158.0083,240,164,spektor,0.09,w,240,164,164,240,227.1683,158.0083,39360,39360,35894.4834,tc,null,null,null,null,null,null,"[3,1]"
,canvas-keyboard-response,255,289253,0.0-6.0-3.41,62,,,,,clear_screen,null,null,,,critical,c,d,t,164,240,227.1683,158.0083,240,164,spektor,0.09,w,240,164,164,240,227.1683,158.0083,39360,39360,35894.4834,tc,null,null,null,null,null,null,"[3,1]"
,canvas-keyboard-response,256,290377,0.0-6.0-4.41,62,,,,,make choice,1112,1,,,critical,c,d,t,164,240,227.1683,158.0083,240,164,spektor,0.09,w,240,164,164,240,227.1683,158.0083,39360,39360,35894.4834,tc,null,null,null,null,null,null,"[3,1]"
,canvas-keyboard-response,257,290538,0.0-6.0-5.41,62,,,,,clear_screen,null,null,,,critical,c,d,t,164,240,227.1683,158.0083,240,164,spektor,0.09,w,240,164,164,240,227.1683,158.0083,39360,39360,35894.4834,tc,null,null,null,null,null,null,"[3,1]"
,canvas-keyboard-response,258,290740,0.0-6.0-0.42,62,,,,,pre trial waiting period,null,null,,,critical,c,d,t,164,240,240,164,240,164,trueblood,0,w,240,164,164,240,240,164,39360,39360,39360,td,null,null,null,null,null,null,"[3,2]"
,canvas-keyboard-response,259,290905,0.0-6.0-1.42,62,,,,,clear_screen,null,null,,,critical,c,d,t,164,240,240,164,240,164,trueblood,0,w,240,164,164,240,240,164,39360,39360,39360,td,null,null,null,null,null,null,"[3,2]"
,canvas-keyboard-response,260,292240,0.0-6.0-2.42,62,,,,,rectangles,null,null,,,critical,c,d,t,164,240,240,164,240,164,trueblood,0,w,240,164,164,240,240,164,39360,39360,39360,td,null,null,null,null,null,null,"[3,2]"
,canvas-keyboard-response,261,292401,0.0-6.0-3.42,62,,,,,clear_screen,null,null,,,critical,c,d,t,164,240,240,164,240,164,trueblood,0,w,240,164,164,240,240,164,39360,39360,39360,td,null,null,null,null,null,null,"[3,2]"
,canvas-keyboard-response,262,293098,0.0-6.0-4.42,62,,,,,make choice,686,3,,,critical,c,d,t,164,240,240,164,240,164,trueblood,0,w,240,164,164,240,240,164,39360,39360,39360,td,null,null,null,null,null,null,"[3,2]"
,canvas-keyboard-response,263,293256,0.0-6.0-5.42,62,,,,,clear_screen,null,null,,,critical,c,d,t,164,240,240,164,240,164,trueblood,0,w,240,164,164,240,240,164,39360,39360,39360,td,null,null,null,null,null,null,"[3,2]"
,canvas-keyboard-response,264,293457,0.0-6.0-0.43,62,,,,,pre trial waiting period,null,null,,,catch,sh,l,sw,161,199,222,238,189,205,spektor,null,null,null,null,null,null,null,null,null,null,null,,180,200,260,200,36000,52000,"[1,2]"
,canvas-keyboard-response,265,293617,0.0-6.0-1.43,62,,,,,clear_screen,null,null,,,catch,sh,l,sw,161,199,222,238,189,205,spektor,null,null,null,null,null,null,null,null,null,null,null,,180,200,260,200,36000,52000,"[1,2]"
,canvas-keyboard-response,266,294957,0.0-6.0-2.43,62,,,,,rectangles,null,null,,,catch,sh,l,sw,161,199,222,238,189,205,spektor,null,null,null,null,null,null,null,null,null,null,null,,180,200,260,200,36000,52000,"[1,2]"
,canvas-keyboard-response,267,295120,0.0-6.0-3.43,62,,,,,clear_screen,null,null,,,catch,sh,l,sw,161,199,222,238,189,205,spektor,null,null,null,null,null,null,null,null,null,null,null,,180,200,260,200,36000,52000,"[1,2]"
,canvas-keyboard-response,268,296112,0.0-6.0-4.43,62,,,,,make choice,981,2,,,catch,sh,l,sw,161,199,222,238,189,205,spektor,null,null,null,null,null,null,null,null,null,null,null,,180,200,260,200,36000,52000,"[1,2]"
,canvas-keyboard-response,269,296270,0.0-6.0-5.43,62,,,,,clear_screen,null,null,,,catch,sh,l,sw,161,199,222,238,189,205,spektor,null,null,null,null,null,null,null,null,null,null,null,,180,200,260,200,36000,52000,"[1,2]"
,canvas-keyboard-response,270,296473,0.0-6.0-0.44,62,,,,,pre trial waiting period,null,null,,,critical,c,d,t,240,164,160.6713,232.8713,164,240,trueblood,0.05,h,164,240,240,164,160.6713,232.8713,39360,39360,37415.7294,tc,null,null,null,null,null,null,"[3,1]"
,canvas-keyboard-response,271,296632,0.0-6.0-1.44,62,,,,,clear_screen,null,null,,,critical,c,d,t,240,164,160.6713,232.8713,164,240,trueblood,0.05,h,164,240,240,164,160.6713,232.8713,39360,39360,37415.7294,tc,null,null,null,null,null,null,"[3,1]"
,canvas-keyboard-response,272,297970,0.0-6.0-2.44,62,,,,,rectangles,null,null,,,critical,c,d,t,240,164,160.6713,232.8713,164,240,trueblood,0.05,h,164,240,240,164,160.6713,232.8713,39360,39360,37415.7294,tc,null,null,null,null,null,null,"[3,1]"
,canvas-keyboard-response,273,298130,0.0-6.0-3.44,62,,,,,clear_screen,null,null,,,critical,c,d,t,240,164,160.6713,232.8713,164,240,trueblood,0.05,h,164,240,240,164,160.6713,232.8713,39360,39360,37415.7294,tc,null,null,null,null,null,null,"[3,1]"
,canvas-keyboard-response,274,298993,0.0-6.0-4.44,62,,,,,make choice,852,1,,,critical,c,d,t,240,164,160.6713,232.8713,164,240,trueblood,0.05,h,164,240,240,164,160.6713,232.8713,39360,39360,37415.7294,tc,null,null,null,null,null,null,"[3,1]"
,canvas-keyboard-response,275,299148,0.0-6.0-5.44,62,,,,,clear_screen,null,null,,,critical,c,d,t,240,164,160.6713,232.8713,164,240,trueblood,0.05,h,164,240,240,164,160.6713,232.8713,39360,39360,37415.7294,tc,null,null,null,null,null,null,"[3,1]"
,canvas-keyboard-response,276,299350,0.0-6.0-0.45,62,,,,,pre trial waiting period,null,null,,,catch,sw,sh,l,180,200,186,175,288,168,trueblood,null,null,null,null,null,null,null,null,null,null,null,,180,200,260,200,36000,52000,"[2,3]"
,canvas-keyboard-response,277,299512,0.0-6.0-1.45,62,,,,,clear_screen,null,null,,,catch,sw,sh,l,180,200,186,175,288,168,trueblood,null,null,null,null,null,null,null,null,null,null,null,,180,200,260,200,36000,52000,"[2,3]"
,canvas-keyboard-response,278,300849,0.0-6.0-2.45,62,,,,,rectangles,null,null,,,catch,sw,sh,l,180,200,186,175,288,168,trueblood,null,null,null,null,null,null,null,null,null,null,null,,180,200,260,200,36000,52000,"[2,3]"
,canvas-keyboard-response,279,301012,0.0-6.0-3.45,62,,,,,clear_screen,null,null,,,catch,sw,sh,l,180,200,186,175,288,168,trueblood,null,null,null,null,null,null,null,null,null,null,null,,180,200,260,200,36000,52000,"[2,3]"
,canvas-keyboard-response,280,302041,0.0-6.0-4.45,62,,,,,make choice,1019,3,,,catch,sw,sh,l,180,200,186,175,288,168,trueblood,null,null,null,null,null,null,null,null,null,null,null,,180,200,260,200,36000,52000,"[2,3]"
,canvas-keyboard-response,281,302199,0.0-6.0-5.45,62,,,,,clear_screen,null,null,,,catch,sw,sh,l,180,200,186,175,288,168,trueblood,null,null,null,null,null,null,null,null,null,null,null,,180,200,260,200,36000,52000,"[2,3]"
,canvas-keyboard-response,282,302400,0.0-6.0-0.46,62,,,,,pre trial waiting period,null,null,,,critical,d,c,t,162.6685,237.1485,240,164,164,240,trueblood,0.02,h,164,240,240,164,162.6685,237.1485,39360,39360,38576.5967,tc,null,null,null,null,null,null,"[3,2]"
,canvas-keyboard-response,283,302564,0.0-6.0-1.46,62,,,,,clear_screen,null,null,,,critical,d,c,t,162.6685,237.1485,240,164,164,240,trueblood,0.02,h,164,240,240,164,162.6685,237.1485,39360,39360,38576.5967,tc,null,null,null,null,null,null,"[3,2]"
,canvas-keyboard-response,284,303903,0.0-6.0-2.46,62,,,,,rectangles,null,null,,,critical,d,c,t,162.6685,237.1485,240,164,164,240,trueblood,0.02,h,164,240,240,164,162.6685,237.1485,39360,39360,38576.5967,tc,null,null,null,null,null,null,"[3,2]"
,canvas-keyboard-response,285,304063,0.0-6.0-3.46,62,,,,,clear_screen,null,null,,,critical,d,c,t,162.6685,237.1485,240,164,164,240,trueblood,0.02,h,164,240,240,164,162.6685,237.1485,39360,39360,38576.5967,tc,null,null,null,null,null,null,"[3,2]"
,canvas-keyboard-response,286,304617,0.0-6.0-4.46,62,,,,,make choice,543,2,,,critical,d,c,t,162.6685,237.1485,240,164,164,240,trueblood,0.02,h,164,240,240,164,162.6685,237.1485,39360,39360,38576.5967,tc,null,null,null,null,null,null,"[3,2]"
,canvas-keyboard-response,287,304777,0.0-6.0-5.46,62,,,,,clear_screen,null,null,,,critical,d,c,t,162.6685,237.1485,240,164,164,240,trueblood,0.02,h,164,240,240,164,162.6685,237.1485,39360,39360,38576.5967,tc,null,null,null,null,null,null,"[3,2]"
,canvas-keyboard-response,288,304978,0.0-6.0-0.47,62,,,,,pre trial waiting period,null,null,,,critical,d,t,c,162.6685,237.1485,164,240,240,164,spektor,0.02,h,164,240,240,164,162.6685,237.1485,39360,39360,38576.5967,dc,null,null,null,null,null,null,"[1,3]"
,canvas-keyboard-response,289,305141,0.0-6.0-1.47,62,,,,,clear_screen,null,null,,,critical,d,t,c,162.6685,237.1485,164,240,240,164,spektor,0.02,h,164,240,240,164,162.6685,237.1485,39360,39360,38576.5967,dc,null,null,null,null,null,null,"[1,3]"
,canvas-keyboard-response,290,306477,0.0-6.0-2.47,62,,,,,rectangles,null,null,,,critical,d,t,c,162.6685,237.1485,164,240,240,164,spektor,0.02,h,164,240,240,164,162.6685,237.1485,39360,39360,38576.5967,dc,null,null,null,null,null,null,"[1,3]"
,canvas-keyboard-response,291,306637,0.0-6.0-3.47,62,,,,,clear_screen,null,null,,,critical,d,t,c,162.6685,237.1485,164,240,240,164,spektor,0.02,h,164,240,240,164,162.6685,237.1485,39360,39360,38576.5967,dc,null,null,null,null,null,null,"[1,3]"
,canvas-keyboard-response,292,307672,0.0-6.0-4.47,62,,,,,make choice,1023,1,,,critical,d,t,c,162.6685,237.1485,164,240,240,164,spektor,0.02,h,164,240,240,164,162.6685,237.1485,39360,39360,38576.5967,dc,null,null,null,null,null,null,"[1,3]"
,canvas-keyboard-response,293,307831,0.0-6.0-5.47,62,,,,,clear_screen,null,null,,,critical,d,t,c,162.6685,237.1485,164,240,240,164,spektor,0.02,h,164,240,240,164,162.6685,237.1485,39360,39360,38576.5967,dc,null,null,null,null,null,null,"[1,3]"
,canvas-keyboard-response,294,308031,0.0-6.0-0.48,62,,,,,pre trial waiting period,null,null,,,critical,c,d,t,240,164,162.6685,237.1485,164,240,trueblood,0.02,h,164,240,240,164,162.6685,237.1485,39360,39360,38576.5967,dc,null,null,null,null,null,null,"[2,1]"
,canvas-keyboard-response,295,308193,0.0-6.0-1.48,62,,,,,clear_screen,null,null,,,critical,c,d,t,240,164,162.6685,237.1485,164,240,trueblood,0.02,h,164,240,240,164,162.6685,237.1485,39360,39360,38576.5967,dc,null,null,null,null,null,null,"[2,1]"
,canvas-keyboard-response,296,309528,0.0-6.0-2.48,62,,,,,rectangles,null,null,,,critical,c,d,t,240,164,162.6685,237.1485,164,240,trueblood,0.02,h,164,240,240,164,162.6685,237.1485,39360,39360,38576.5967,dc,null,null,null,null,null,null,"[2,1]"
,canvas-keyboard-response,297,309692,0.0-6.0-3.48,62,,,,,clear_screen,null,null,,,critical,c,d,t,240,164,162.6685,237.1485,164,240,trueblood,0.02,h,164,240,240,164,162.6685,237.1485,39360,39360,38576.5967,dc,null,null,null,null,null,null,"[2,1]"
,canvas-keyboard-response,298,310410,0.0-6.0-4.48,62,,,,,make choice,703,1,,,critical,c,d,t,240,164,162.6685,237.1485,164,240,trueblood,0.02,h,164,240,240,164,162.6685,237.1485,39360,39360,38576.5967,dc,null,null,null,null,null,null,"[2,1]"
,canvas-keyboard-response,299,310572,0.0-6.0-5.48,62,,,,,clear_screen,null,null,,,critical,c,d,t,240,164,162.6685,237.1485,164,240,trueblood,0.02,h,164,240,240,164,162.6685,237.1485,39360,39360,38576.5967,dc,null,null,null,null,null,null,"[2,1]"
,canvas-keyboard-response,300,310773,0.0-6.0-0.49,62,,,,,pre trial waiting period,null,null,,,critical,d,t,c,240,164,240,164,164,240,spektor,0,w,240,164,164,240,240,164,39360,39360,39360,tc,null,null,null,null,null,null,"[2,3]"
,canvas-keyboard-response,301,310934,0.0-6.0-1.49,62,,,,,clear_screen,null,null,,,critical,d,t,c,240,164,240,164,164,240,spektor,0,w,240,164,164,240,240,164,39360,39360,39360,tc,null,null,null,null,null,null,"[2,3]"
,canvas-keyboard-response,302,312275,0.0-6.0-2.49,62,,,,,rectangles,null,null,,,critical,d,t,c,240,164,240,164,164,240,spektor,0,w,240,164,164,240,240,164,39360,39360,39360,tc,null,null,null,null,null,null,"[2,3]"
,canvas-keyboard-response,303,312438,0.0-6.0-3.49,62,,,,,clear_screen,null,null,,,critical,d,t,c,240,164,240,164,164,240,spektor,0,w,240,164,164,240,240,164,39360,39360,39360,tc,null,null,null,null,null,null,"[2,3]"
,canvas-keyboard-response,304,314056,0.0-6.0-4.49,62,,,,,make choice,1608,3,,,critical,d,t,c,240,164,240,164,164,240,spektor,0,w,240,164,164,240,240,164,39360,39360,39360,tc,null,null,null,null,null,null,"[2,3]"
,canvas-keyboard-response,305,314216,0.0-6.0-5.49,62,,,,,clear_screen,null,null,,,critical,d,t,c,240,164,240,164,164,240,spektor,0,w,240,164,164,240,240,164,39360,39360,39360,tc,null,null,null,null,null,null,"[2,3]"
,canvas-keyboard-response,306,314417,0.0-6.0-0.50,62,,,,,pre trial waiting period,null,null,,,critical,d,t,c,232.8713,160.6713,240,164,164,240,trueblood,0.05,w,240,164,164,240,232.8713,160.6713,39360,39360,37415.7294,td,null,null,null,null,null,null,"[2,1]"
,canvas-keyboard-response,307,314580,0.0-6.0-1.50,62,,,,,clear_screen,null,null,,,critical,d,t,c,232.8713,160.6713,240,164,164,240,trueblood,0.05,w,240,164,164,240,232.8713,160.6713,39360,39360,37415.7294,td,null,null,null,null,null,null,"[2,1]"
,canvas-keyboard-response,308,315917,0.0-6.0-2.50,62,,,,,rectangles,null,null,,,critical,d,t,c,232.8713,160.6713,240,164,164,240,trueblood,0.05,w,240,164,164,240,232.8713,160.6713,39360,39360,37415.7294,td,null,null,null,null,null,null,"[2,1]"
,canvas-keyboard-response,309,316079,0.0-6.0-3.50,62,,,,,clear_screen,null,null,,,critical,d,t,c,232.8713,160.6713,240,164,164,240,trueblood,0.05,w,240,164,164,240,232.8713,160.6713,39360,39360,37415.7294,td,null,null,null,null,null,null,"[2,1]"
,canvas-keyboard-response,310,316936,0.0-6.0-4.50,62,,,,,make choice,849,2,,,critical,d,t,c,232.8713,160.6713,240,164,164,240,trueblood,0.05,w,240,164,164,240,232.8713,160.6713,39360,39360,37415.7294,td,null,null,null,null,null,null,"[2,1]"
,canvas-keyboard-response,311,317097,0.0-6.0-5.50,62,,,,,clear_screen,null,null,,,critical,d,t,c,232.8713,160.6713,240,164,164,240,trueblood,0.05,w,240,164,164,240,232.8713,160.6713,39360,39360,37415.7294,td,null,null,null,null,null,null,"[2,1]"
,canvas-keyboard-response,312,317298,0.0-6.0-0.51,62,,,,,pre trial waiting period,null,null,,,critical,d,t,c,232.8713,160.6713,240,164,164,240,spektor,0.05,w,240,164,164,240,232.8713,160.6713,39360,39360,37415.7294,dc,null,null,null,null,null,null,"[1,3]"
,canvas-keyboard-response,313,317461,0.0-6.0-1.51,62,,,,,clear_screen,null,null,,,critical,d,t,c,232.8713,160.6713,240,164,164,240,spektor,0.05,w,240,164,164,240,232.8713,160.6713,39360,39360,37415.7294,dc,null,null,null,null,null,null,"[1,3]"
,canvas-keyboard-response,314,318798,0.0-6.0-2.51,62,,,,,rectangles,null,null,,,critical,d,t,c,232.8713,160.6713,240,164,164,240,spektor,0.05,w,240,164,164,240,232.8713,160.6713,39360,39360,37415.7294,dc,null,null,null,null,null,null,"[1,3]"
,canvas-keyboard-response,315,318957,0.0-6.0-3.51,62,,,,,clear_screen,null,null,,,critical,d,t,c,232.8713,160.6713,240,164,164,240,spektor,0.05,w,240,164,164,240,232.8713,160.6713,39360,39360,37415.7294,dc,null,null,null,null,null,null,"[1,3]"
,canvas-keyboard-response,316,319544,0.0-6.0-4.51,62,,,,,make choice,579,3,,,critical,d,t,c,232.8713,160.6713,240,164,164,240,spektor,0.05,w,240,164,164,240,232.8713,160.6713,39360,39360,37415.7294,dc,null,null,null,null,null,null,"[1,3]"
,canvas-keyboard-response,317,319705,0.0-6.0-5.51,62,,,,,clear_screen,null,null,,,critical,d,t,c,232.8713,160.6713,240,164,164,240,spektor,0.05,w,240,164,164,240,232.8713,160.6713,39360,39360,37415.7294,dc,null,null,null,null,null,null,"[1,3]"
,canvas-keyboard-response,318,319906,0.0-6.0-0.52,62,,,,,pre trial waiting period,null,null,,,catch,sw,sh,l,180,200,234,203,181,270,trueblood,null,null,null,null,null,null,null,null,null,null,null,,180,200,260,200,36000,52000,"[2,3]"
,canvas-keyboard-response,319,320068,0.0-6.0-1.52,62,,,,,clear_screen,null,null,,,catch,sw,sh,l,180,200,234,203,181,270,trueblood,null,null,null,null,null,null,null,null,null,null,null,,180,200,260,200,36000,52000,"[2,3]"
,canvas-keyboard-response,320,321404,0.0-6.0-2.52,62,,,,,rectangles,null,null,,,catch,sw,sh,l,180,200,234,203,181,270,trueblood,null,null,null,null,null,null,null,null,null,null,null,,180,200,260,200,36000,52000,"[2,3]"
,canvas-keyboard-response,321,321562,0.0-6.0-3.52,62,,,,,clear_screen,null,null,,,catch,sw,sh,l,180,200,234,203,181,270,trueblood,null,null,null,null,null,null,null,null,null,null,null,,180,200,260,200,36000,52000,"[2,3]"
,canvas-keyboard-response,322,322201,0.0-6.0-4.52,62,,,,,make choice,628,2,,,catch,sw,sh,l,180,200,234,203,181,270,trueblood,null,null,null,null,null,null,null,null,null,null,null,,180,200,260,200,36000,52000,"[2,3]"
,canvas-keyboard-response,323,322361,0.0-6.0-5.52,62,,,,,clear_screen,null,null,,,catch,sw,sh,l,180,200,234,203,181,270,trueblood,null,null,null,null,null,null,null,null,null,null,null,,180,200,260,200,36000,52000,"[2,3]"
,canvas-keyboard-response,324,322562,0.0-6.0-0.53,62,,,,,pre trial waiting period,null,null,,,catch,sw,l,sh,180,200,223,207,182,159,spektor,null,null,null,null,null,null,null,null,null,null,null,,180,200,260,200,36000,52000,"[1,2]"
,canvas-keyboard-response,325,322725,0.0-6.0-1.53,62,,,,,clear_screen,null,null,,,catch,sw,l,sh,180,200,223,207,182,159,spektor,null,null,null,null,null,null,null,null,null,null,null,,180,200,260,200,36000,52000,"[1,2]"
,canvas-keyboard-response,326,324064,0.0-6.0-2.53,62,,,,,rectangles,null,null,,,catch,sw,l,sh,180,200,223,207,182,159,spektor,null,null,null,null,null,null,null,null,null,null,null,,180,200,260,200,36000,52000,"[1,2]"
,canvas-keyboard-response,327,324228,0.0-6.0-3.53,62,,,,,clear_screen,null,null,,,catch,sw,l,sh,180,200,223,207,182,159,spektor,null,null,null,null,null,null,null,null,null,null,null,,180,200,260,200,36000,52000,"[1,2]"
,canvas-keyboard-response,328,325193,0.0-6.0-4.53,62,,,,,make choice,952,2,,,catch,sw,l,sh,180,200,223,207,182,159,spektor,null,null,null,null,null,null,null,null,null,null,null,,180,200,260,200,36000,52000,"[1,2]"
,canvas-keyboard-response,329,325351,0.0-6.0-5.53,62,,,,,clear_screen,null,null,,,catch,sw,l,sh,180,200,223,207,182,159,spektor,null,null,null,null,null,null,null,null,null,null,null,,180,200,260,200,36000,52000,"[1,2]"
,canvas-keyboard-response,330,325553,0.0-6.0-0.54,62,,,,,pre trial waiting period,null,null,,,critical,d,t,c,160.6713,232.8713,164,240,240,164,spektor,0.05,h,164,240,240,164,160.6713,232.8713,39360,39360,37415.7294,tc,null,null,null,null,null,null,"[2,3]"
,canvas-keyboard-response,331,325716,0.0-6.0-1.54,62,,,,,clear_screen,null,null,,,critical,d,t,c,160.6713,232.8713,164,240,240,164,spektor,0.05,h,164,240,240,164,160.6713,232.8713,39360,39360,37415.7294,tc,null,null,null,null,null,null,"[2,3]"
,canvas-keyboard-response,332,327055,0.0-6.0-2.54,62,,,,,rectangles,null,null,,,critical,d,t,c,160.6713,232.8713,164,240,240,164,spektor,0.05,h,164,240,240,164,160.6713,232.8713,39360,39360,37415.7294,tc,null,null,null,null,null,null,"[2,3]"
,canvas-keyboard-response,333,327217,0.0-6.0-3.54,62,,,,,clear_screen,null,null,,,critical,d,t,c,160.6713,232.8713,164,240,240,164,spektor,0.05,h,164,240,240,164,160.6713,232.8713,39360,39360,37415.7294,tc,null,null,null,null,null,null,"[2,3]"
,canvas-keyboard-response,334,328152,0.0-6.0-4.54,62,,,,,make choice,922,2,,,critical,d,t,c,160.6713,232.8713,164,240,240,164,spektor,0.05,h,164,240,240,164,160.6713,232.8713,39360,39360,37415.7294,tc,null,null,null,null,null,null,"[2,3]"
,canvas-keyboard-response,335,328313,0.0-6.0-5.54,62,,,,,clear_screen,null,null,,,critical,d,t,c,160.6713,232.8713,164,240,240,164,spektor,0.05,h,164,240,240,164,160.6713,232.8713,39360,39360,37415.7294,tc,null,null,null,null,null,null,"[2,3]"
,canvas-keyboard-response,336,328516,0.0-6.0-0.55,62,,,,,pre trial waiting period,null,null,,,critical,c,d,t,240,164,164,240,164,240,spektor,0,h,164,240,240,164,164,240,39360,39360,39360,tc,null,null,null,null,null,null,"[3,1]"
,canvas-keyboard-response,337,328680,0.0-6.0-1.55,62,,,,,clear_screen,null,null,,,critical,c,d,t,240,164,164,240,164,240,spektor,0,h,164,240,240,164,164,240,39360,39360,39360,tc,null,null,null,null,null,null,"[3,1]"
,canvas-keyboard-response,338,330017,0.0-6.0-2.55,62,,,,,rectangles,null,null,,,critical,c,d,t,240,164,164,240,164,240,spektor,0,h,164,240,240,164,164,240,39360,39360,39360,tc,null,null,null,null,null,null,"[3,1]"
,canvas-keyboard-response,339,330180,0.0-6.0-3.55,62,,,,,clear_screen,null,null,,,critical,c,d,t,240,164,164,240,164,240,spektor,0,h,164,240,240,164,164,240,39360,39360,39360,tc,null,null,null,null,null,null,"[3,1]"
,canvas-keyboard-response,340,332345,0.0-6.0-4.55,62,,,,,make choice,2156,3,,,critical,c,d,t,240,164,164,240,164,240,spektor,0,h,164,240,240,164,164,240,39360,39360,39360,tc,null,null,null,null,null,null,"[3,1]"
,canvas-keyboard-response,341,332507,0.0-6.0-5.55,62,,,,,clear_screen,null,null,,,critical,c,d,t,240,164,164,240,164,240,spektor,0,h,164,240,240,164,164,240,39360,39360,39360,tc,null,null,null,null,null,null,"[3,1]"
,canvas-keyboard-response,342,332708,0.0-6.0-0.56,62,,,,,pre trial waiting period,null,null,,,catch,l,sh,sw,283,171,239,198,216,192,trueblood,null,null,null,null,null,null,null,null,null,null,null,,180,200,260,200,36000,52000,"[1,3]"
,canvas-keyboard-response,343,332872,0.0-6.0-1.56,62,,,,,clear_screen,null,null,,,catch,l,sh,sw,283,171,239,198,216,192,trueblood,null,null,null,null,null,null,null,null,null,null,null,,180,200,260,200,36000,52000,"[1,3]"
,canvas-keyboard-response,344,334212,0.0-6.0-2.56,62,,,,,rectangles,null,null,,,catch,l,sh,sw,283,171,239,198,216,192,trueblood,null,null,null,null,null,null,null,null,null,null,null,,180,200,260,200,36000,52000,"[1,3]"
,canvas-keyboard-response,345,334373,0.0-6.0-3.56,62,,,,,clear_screen,null,null,,,catch,l,sh,sw,283,171,239,198,216,192,trueblood,null,null,null,null,null,null,null,null,null,null,null,,180,200,260,200,36000,52000,"[1,3]"
,canvas-keyboard-response,346,335417,0.0-6.0-4.56,62,,,,,make choice,1036,1,,,catch,l,sh,sw,283,171,239,198,216,192,trueblood,null,null,null,null,null,null,null,null,null,null,null,,180,200,260,200,36000,52000,"[1,3]"
,canvas-keyboard-response,347,335577,0.0-6.0-5.56,62,,,,,clear_screen,null,null,,,catch,l,sh,sw,283,171,239,198,216,192,trueblood,null,null,null,null,null,null,null,null,null,null,null,,180,200,260,200,36000,52000,"[1,3]"
,canvas-keyboard-response,348,335778,0.0-6.0-0.57,62,,,,,pre trial waiting period,null,null,,,critical,c,d,t,164,240,227.1683,158.0083,240,164,spektor,0.09,w,240,164,164,240,227.1683,158.0083,39360,39360,35894.4834,dc,null,null,null,null,null,null,"[2,1]"
,canvas-keyboard-response,349,335943,0.0-6.0-1.57,62,,,,,clear_screen,null,null,,,critical,c,d,t,164,240,227.1683,158.0083,240,164,spektor,0.09,w,240,164,164,240,227.1683,158.0083,39360,39360,35894.4834,dc,null,null,null,null,null,null,"[2,1]"
,canvas-keyboard-response,350,337283,0.0-6.0-2.57,62,,,,,rectangles,null,null,,,critical,c,d,t,164,240,227.1683,158.0083,240,164,spektor,0.09,w,240,164,164,240,227.1683,158.0083,39360,39360,35894.4834,dc,null,null,null,null,null,null,"[2,1]"
,canvas-keyboard-response,351,337442,0.0-6.0-3.57,62,,,,,clear_screen,null,null,,,critical,c,d,t,164,240,227.1683,158.0083,240,164,spektor,0.09,w,240,164,164,240,227.1683,158.0083,39360,39360,35894.4834,dc,null,null,null,null,null,null,"[2,1]"
,canvas-keyboard-response,352,338176,0.0-6.0-4.57,62,,,,,make choice,722,1,,,critical,c,d,t,164,240,227.1683,158.0083,240,164,spektor,0.09,w,240,164,164,240,227.1683,158.0083,39360,39360,35894.4834,dc,null,null,null,null,null,null,"[2,1]"
,canvas-keyboard-response,353,338336,0.0-6.0-5.57,62,,,,,clear_screen,null,null,,,critical,c,d,t,164,240,227.1683,158.0083,240,164,spektor,0.09,w,240,164,164,240,227.1683,158.0083,39360,39360,35894.4834,dc,null,null,null,null,null,null,"[2,1]"
,canvas-keyboard-response,354,338538,0.0-6.0-0.58,62,,,,,pre trial waiting period,null,null,,,critical,c,d,t,164,240,240,164,240,164,spektor,0,w,240,164,164,240,240,164,39360,39360,39360,dc,null,null,null,null,null,null,"[2,1]"
,canvas-keyboard-response,355,338699,0.0-6.0-1.58,62,,,,,clear_screen,null,null,,,critical,c,d,t,164,240,240,164,240,164,spektor,0,w,240,164,164,240,240,164,39360,39360,39360,dc,null,null,null,null,null,null,"[2,1]"
,canvas-keyboard-response,356,340034,0.0-6.0-2.58,62,,,,,rectangles,null,null,,,critical,c,d,t,164,240,240,164,240,164,spektor,0,w,240,164,164,240,240,164,39360,39360,39360,dc,null,null,null,null,null,null,"[2,1]"
,canvas-keyboard-response,357,340194,0.0-6.0-3.58,62,,,,,clear_screen,null,null,,,critical,c,d,t,164,240,240,164,240,164,spektor,0,w,240,164,164,240,240,164,39360,39360,39360,dc,null,null,null,null,null,null,"[2,1]"
,canvas-keyboard-response,358,340929,0.0-6.0-4.58,62,,,,,make choice,723,1,,,critical,c,d,t,164,240,240,164,240,164,spektor,0,w,240,164,164,240,240,164,39360,39360,39360,dc,null,null,null,null,null,null,"[2,1]"
,canvas-keyboard-response,359,341087,0.0-6.0-5.58,62,,,,,clear_screen,null,null,,,critical,c,d,t,164,240,240,164,240,164,spektor,0,w,240,164,164,240,240,164,39360,39360,39360,dc,null,null,null,null,null,null,"[2,1]"
,canvas-keyboard-response,360,341288,0.0-6.0-0.59,62,,,,,pre trial waiting period,null,null,,,catch,sw,sh,l,180,200,222,205,205,263,trueblood,null,null,null,null,null,null,null,null,null,null,null,,180,200,260,200,36000,52000,"[1,3]"
,canvas-keyboard-response,361,341448,0.0-6.0-1.59,62,,,,,clear_screen,null,null,,,catch,sw,sh,l,180,200,222,205,205,263,trueblood,null,null,null,null,null,null,null,null,null,null,null,,180,200,260,200,36000,52000,"[1,3]"
,canvas-keyboard-response,362,342788,0.0-6.0-2.59,62,,,,,rectangles,null,null,,,catch,sw,sh,l,180,200,222,205,205,263,trueblood,null,null,null,null,null,null,null,null,null,null,null,,180,200,260,200,36000,52000,"[1,3]"
,canvas-keyboard-response,363,342952,0.0-6.0-3.59,62,,,,,clear_screen,null,null,,,catch,sw,sh,l,180,200,222,205,205,263,trueblood,null,null,null,null,null,null,null,null,null,null,null,,180,200,260,200,36000,52000,"[1,3]"
,canvas-keyboard-response,364,344009,0.0-6.0-4.59,62,,,,,make choice,1046,3,,,catch,sw,sh,l,180,200,222,205,205,263,trueblood,null,null,null,null,null,null,null,null,null,null,null,,180,200,260,200,36000,52000,"[1,3]"
,canvas-keyboard-response,365,344168,0.0-6.0-5.59,62,,,,,clear_screen,null,null,,,catch,sw,sh,l,180,200,222,205,205,263,trueblood,null,null,null,null,null,null,null,null,null,null,null,,180,200,260,200,36000,52000,"[1,3]"
,canvas-keyboard-response,366,344370,0.0-6.0-0.60,62,,,,,pre trial waiting period,null,null,,,critical,d,c,t,232.8713,160.6713,164,240,240,164,spektor,0.05,w,240,164,164,240,232.8713,160.6713,39360,39360,37415.7294,td,null,null,null,null,null,null,"[3,1]"
,canvas-keyboard-response,367,344532,0.0-6.0-1.60,62,,,,,clear_screen,null,null,,,critical,d,c,t,232.8713,160.6713,164,240,240,164,spektor,0.05,w,240,164,164,240,232.8713,160.6713,39360,39360,37415.7294,td,null,null,null,null,null,null,"[3,1]"
,canvas-keyboard-response,368,345869,0.0-6.0-2.60,62,,,,,rectangles,null,null,,,critical,d,c,t,232.8713,160.6713,164,240,240,164,spektor,0.05,w,240,164,164,240,232.8713,160.6713,39360,39360,37415.7294,td,null,null,null,null,null,null,"[3,1]"
,canvas-keyboard-response,369,346032,0.0-6.0-3.60,62,,,,,clear_screen,null,null,,,critical,d,c,t,232.8713,160.6713,164,240,240,164,spektor,0.05,w,240,164,164,240,232.8713,160.6713,39360,39360,37415.7294,td,null,null,null,null,null,null,"[3,1]"
,canvas-keyboard-response,370,348080,0.0-6.0-4.60,62,,,,,make choice,2034,3,,,critical,d,c,t,232.8713,160.6713,164,240,240,164,spektor,0.05,w,240,164,164,240,232.8713,160.6713,39360,39360,37415.7294,td,null,null,null,null,null,null,"[3,1]"
,canvas-keyboard-response,371,348241,0.0-6.0-5.60,62,,,,,clear_screen,null,null,,,critical,d,c,t,232.8713,160.6713,164,240,240,164,spektor,0.05,w,240,164,164,240,232.8713,160.6713,39360,39360,37415.7294,td,null,null,null,null,null,null,"[3,1]"
,canvas-keyboard-response,372,348443,0.0-6.0-0.61,62,,,,,pre trial waiting period,null,null,,,critical,d,t,c,164,240,164,240,240,164,spektor,0,h,164,240,240,164,164,240,39360,39360,39360,td,null,null,null,null,null,null,"[2,1]"
,canvas-keyboard-response,373,348608,0.0-6.0-1.61,62,,,,,clear_screen,null,null,,,critical,d,t,c,164,240,164,240,240,164,spektor,0,h,164,240,240,164,164,240,39360,39360,39360,td,null,null,null,null,null,null,"[2,1]"
,canvas-keyboard-response,374,349945,0.0-6.0-2.61,62,,,,,rectangles,null,null,,,critical,d,t,c,164,240,164,240,240,164,spektor,0,h,164,240,240,164,164,240,39360,39360,39360,td,null,null,null,null,null,null,"[2,1]"
,canvas-keyboard-response,375,350104,0.0-6.0-3.61,62,,,,,clear_screen,null,null,,,critical,d,t,c,164,240,164,240,240,164,spektor,0,h,164,240,240,164,164,240,39360,39360,39360,td,null,null,null,null,null,null,"[2,1]"
,canvas-keyboard-response,376,351769,0.0-6.0-4.61,62,,,,,make choice,1653,2,,,critical,d,t,c,164,240,164,240,240,164,spektor,0,h,164,240,240,164,164,240,39360,39360,39360,td,null,null,null,null,null,null,"[2,1]"
,canvas-keyboard-response,377,351931,0.0-6.0-5.61,62,,,,,clear_screen,null,null,,,critical,d,t,c,164,240,164,240,240,164,spektor,0,h,164,240,240,164,164,240,39360,39360,39360,td,null,null,null,null,null,null,"[2,1]"
,canvas-keyboard-response,378,352132,0.0-6.0-0.62,62,,,,,pre trial waiting period,null,null,,,catch,sw,l,sh,180,200,262,182,194,150,trueblood,null,null,null,null,null,null,null,null,null,null,null,,180,200,260,200,36000,52000,"[2,3]"
,canvas-keyboard-response,379,352293,0.0-6.0-1.62,62,,,,,clear_screen,null,null,,,catch,sw,l,sh,180,200,262,182,194,150,trueblood,null,null,null,null,null,null,null,null,null,null,null,,180,200,260,200,36000,52000,"[2,3]"
,canvas-keyboard-response,380,353628,0.0-6.0-2.62,62,,,,,rectangles,null,null,,,catch,sw,l,sh,180,200,262,182,194,150,trueblood,null,null,null,null,null,null,null,null,null,null,null,,180,200,260,200,36000,52000,"[2,3]"
,canvas-keyboard-response,381,353787,0.0-6.0-3.62,62,,,,,clear_screen,null,null,,,catch,sw,l,sh,180,200,262,182,194,150,trueblood,null,null,null,null,null,null,null,null,null,null,null,,180,200,260,200,36000,52000,"[2,3]"
,canvas-keyboard-response,382,354409,0.0-6.0-4.62,62,,,,,make choice,612,2,,,catch,sw,l,sh,180,200,262,182,194,150,trueblood,null,null,null,null,null,null,null,null,null,null,null,,180,200,260,200,36000,52000,"[2,3]"
,canvas-keyboard-response,383,354568,0.0-6.0-5.62,62,,,,,clear_screen,null,null,,,catch,sw,l,sh,180,200,262,182,194,150,trueblood,null,null,null,null,null,null,null,null,null,null,null,,180,200,260,200,36000,52000,"[2,3]"
,canvas-keyboard-response,384,354770,0.0-6.0-0.63,62,,,,,pre trial waiting period,null,null,,,catch,sw,sh,l,180,200,181,207,181,271,trueblood,null,null,null,null,null,null,null,null,null,null,null,,180,200,260,200,36000,52000,"[1,3]"
,canvas-keyboard-response,385,354929,0.0-6.0-1.63,62,,,,,clear_screen,null,null,,,catch,sw,sh,l,180,200,181,207,181,271,trueblood,null,null,null,null,null,null,null,null,null,null,null,,180,200,260,200,36000,52000,"[1,3]"
,canvas-keyboard-response,386,356265,0.0-6.0-2.63,62,,,,,rectangles,null,null,,,catch,sw,sh,l,180,200,181,207,181,271,trueblood,null,null,null,null,null,null,null,null,null,null,null,,180,200,260,200,36000,52000,"[1,3]"
,canvas-keyboard-response,387,356429,0.0-6.0-3.63,62,,,,,clear_screen,null,null,,,catch,sw,sh,l,180,200,181,207,181,271,trueblood,null,null,null,null,null,null,null,null,null,null,null,,180,200,260,200,36000,52000,"[1,3]"
,canvas-keyboard-response,388,356993,0.0-6.0-4.63,62,,,,,make choice,555,3,,,catch,sw,sh,l,180,200,181,207,181,271,trueblood,null,null,null,null,null,null,null,null,null,null,null,,180,200,260,200,36000,52000,"[1,3]"
,canvas-keyboard-response,389,357151,0.0-6.0-5.63,62,,,,,clear_screen,null,null,,,catch,sw,sh,l,180,200,181,207,181,271,trueblood,null,null,null,null,null,null,null,null,null,null,null,,180,200,260,200,36000,52000,"[1,3]"
,canvas-keyboard-response,390,357353,0.0-6.0-0.64,62,,,,,pre trial waiting period,null,null,,,critical,d,c,t,237.1485,162.6685,164,240,240,164,trueblood,0.02,w,240,164,164,240,237.1485,162.6685,39360,39360,38576.5967,td,null,null,null,null,null,null,"[3,1]"
,canvas-keyboard-response,391,357517,0.0-6.0-1.64,62,,,,,clear_screen,null,null,,,critical,d,c,t,237.1485,162.6685,164,240,240,164,trueblood,0.02,w,240,164,164,240,237.1485,162.6685,39360,39360,38576.5967,td,null,null,null,null,null,null,"[3,1]"
,canvas-keyboard-response,392,358856,0.0-6.0-2.64,62,,,,,rectangles,null,null,,,critical,d,c,t,237.1485,162.6685,164,240,240,164,trueblood,0.02,w,240,164,164,240,237.1485,162.6685,39360,39360,38576.5967,td,null,null,null,null,null,null,"[3,1]"
,canvas-keyboard-response,393,359020,0.0-6.0-3.64,62,,,,,clear_screen,null,null,,,critical,d,c,t,237.1485,162.6685,164,240,240,164,trueblood,0.02,w,240,164,164,240,237.1485,162.6685,39360,39360,38576.5967,td,null,null,null,null,null,null,"[3,1]"
,canvas-keyboard-response,394,361345,0.0-6.0-4.64,62,,,,,make choice,2313,3,,,critical,d,c,t,237.1485,162.6685,164,240,240,164,trueblood,0.02,w,240,164,164,240,237.1485,162.6685,39360,39360,38576.5967,td,null,null,null,null,null,null,"[3,1]"
,canvas-keyboard-response,395,361503,0.0-6.0-5.64,62,,,,,clear_screen,null,null,,,critical,d,c,t,237.1485,162.6685,164,240,240,164,trueblood,0.02,w,240,164,164,240,237.1485,162.6685,39360,39360,38576.5967,td,null,null,null,null,null,null,"[3,1]"
,canvas-keyboard-response,396,361704,0.0-6.0-0.65,62,,,,,pre trial waiting period,null,null,,,critical,c,t,d,240,164,164,240,158.0083,227.1683,spektor,0.09,h,164,240,240,164,158.0083,227.1683,39360,39360,35894.4834,dc,null,null,null,null,null,null,"[3,1]"
,canvas-keyboard-response,397,361865,0.0-6.0-1.65,62,,,,,clear_screen,null,null,,,critical,c,t,d,240,164,164,240,158.0083,227.1683,spektor,0.09,h,164,240,240,164,158.0083,227.1683,39360,39360,35894.4834,dc,null,null,null,null,null,null,"[3,1]"
,canvas-keyboard-response,398,363201,0.0-6.0-2.65,62,,,,,rectangles,null,null,,,critical,c,t,d,240,164,164,240,158.0083,227.1683,spektor,0.09,h,164,240,240,164,158.0083,227.1683,39360,39360,35894.4834,dc,null,null,null,null,null,null,"[3,1]"
,canvas-keyboard-response,399,363364,0.0-6.0-3.65,62,,,,,clear_screen,null,null,,,critical,c,t,d,240,164,164,240,158.0083,227.1683,spektor,0.09,h,164,240,240,164,158.0083,227.1683,39360,39360,35894.4834,dc,null,null,null,null,null,null,"[3,1]"
,canvas-keyboard-response,400,365721,0.0-6.0-4.65,62,,,,,make choice,2347,3,,,critical,c,t,d,240,164,164,240,158.0083,227.1683,spektor,0.09,h,164,240,240,164,158.0083,227.1683,39360,39360,35894.4834,dc,null,null,null,null,null,null,"[3,1]"
,canvas-keyboard-response,401,365879,0.0-6.0-5.65,62,,,,,clear_screen,null,null,,,critical,c,t,d,240,164,164,240,158.0083,227.1683,spektor,0.09,h,164,240,240,164,158.0083,227.1683,39360,39360,35894.4834,dc,null,null,null,null,null,null,"[3,1]"
,canvas-keyboard-response,402,366080,0.0-6.0-0.66,62,,,,,pre trial waiting period,null,null,,,critical,c,d,t,164,240,237.1485,162.6685,240,164,spektor,0.02,w,240,164,164,240,237.1485,162.6685,39360,39360,38576.5967,dc,null,null,null,null,null,null,"[2,1]"
,canvas-keyboard-response,403,366244,0.0-6.0-1.66,62,,,,,clear_screen,null,null,,,critical,c,d,t,164,240,237.1485,162.6685,240,164,spektor,0.02,w,240,164,164,240,237.1485,162.6685,39360,39360,38576.5967,dc,null,null,null,null,null,null,"[2,1]"
,canvas-keyboard-response,404,367580,0.0-6.0-2.66,62,,,,,rectangles,null,null,,,critical,c,d,t,164,240,237.1485,162.6685,240,164,spektor,0.02,w,240,164,164,240,237.1485,162.6685,39360,39360,38576.5967,dc,null,null,null,null,null,null,"[2,1]"
,canvas-keyboard-response,405,367736,0.0-6.0-3.66,62,,,,,clear_screen,null,null,,,critical,c,d,t,164,240,237.1485,162.6685,240,164,spektor,0.02,w,240,164,164,240,237.1485,162.6685,39360,39360,38576.5967,dc,null,null,null,null,null,null,"[2,1]"
,canvas-keyboard-response,406,368760,0.0-6.0-4.66,62,,,,,make choice,1014,1,,,critical,c,d,t,164,240,237.1485,162.6685,240,164,spektor,0.02,w,240,164,164,240,237.1485,162.6685,39360,39360,38576.5967,dc,null,null,null,null,null,null,"[2,1]"
,canvas-keyboard-response,407,368922,0.0-6.0-5.66,62,,,,,clear_screen,null,null,,,critical,c,d,t,164,240,237.1485,162.6685,240,164,spektor,0.02,w,240,164,164,240,237.1485,162.6685,39360,39360,38576.5967,dc,null,null,null,null,null,null,"[2,1]"
,canvas-keyboard-response,408,369123,0.0-6.0-0.67,62,,,,,pre trial waiting period,null,null,,,catch,sw,sh,l,180,200,182,197,231,245,trueblood,null,null,null,null,null,null,null,null,null,null,null,,180,200,260,200,36000,52000,"[1,3]"
,canvas-keyboard-response,409,369288,0.0-6.0-1.67,62,,,,,clear_screen,null,null,,,catch,sw,sh,l,180,200,182,197,231,245,trueblood,null,null,null,null,null,null,null,null,null,null,null,,180,200,260,200,36000,52000,"[1,3]"
,canvas-keyboard-response,410,370625,0.0-6.0-2.67,62,,,,,rectangles,null,null,,,catch,sw,sh,l,180,200,182,197,231,245,trueblood,null,null,null,null,null,null,null,null,null,null,null,,180,200,260,200,36000,52000,"[1,3]"
,canvas-keyboard-response,411,370784,0.0-6.0-3.67,62,,,,,clear_screen,null,null,,,catch,sw,sh,l,180,200,182,197,231,245,trueblood,null,null,null,null,null,null,null,null,null,null,null,,180,200,260,200,36000,52000,"[1,3]"
,canvas-keyboard-response,412,371769,0.0-6.0-4.67,62,,,,,make choice,971,3,,,catch,sw,sh,l,180,200,182,197,231,245,trueblood,null,null,null,null,null,null,null,null,null,null,null,,180,200,260,200,36000,52000,"[1,3]"
,canvas-keyboard-response,413,371929,0.0-6.0-5.67,62,,,,,clear_screen,null,null,,,catch,sw,sh,l,180,200,182,197,231,245,trueblood,null,null,null,null,null,null,null,null,null,null,null,,180,200,260,200,36000,52000,"[1,3]"
,canvas-keyboard-response,414,372131,0.0-6.0-0.68,62,,,,,pre trial waiting period,null,null,,,critical,t,d,c,164,240,164,240,240,164,spektor,0,h,164,240,240,164,164,240,39360,39360,39360,dc,null,null,null,null,null,null,"[2,3]"
,canvas-keyboard-response,415,372294,0.0-6.0-1.68,62,,,,,clear_screen,null,null,,,critical,t,d,c,164,240,164,240,240,164,spektor,0,h,164,240,240,164,164,240,39360,39360,39360,dc,null,null,null,null,null,null,"[2,3]"
,canvas-keyboard-response,416,373632,0.0-6.0-2.68,62,,,,,rectangles,null,null,,,critical,t,d,c,164,240,164,240,240,164,spektor,0,h,164,240,240,164,164,240,39360,39360,39360,dc,null,null,null,null,null,null,"[2,3]"
,canvas-keyboard-response,417,373796,0.0-6.0-3.68,62,,,,,clear_screen,null,null,,,critical,t,d,c,164,240,164,240,240,164,spektor,0,h,164,240,240,164,164,240,39360,39360,39360,dc,null,null,null,null,null,null,"[2,3]"
,canvas-keyboard-response,418,375025,0.0-6.0-4.68,62,,,,,make choice,1219,2,,,critical,t,d,c,164,240,164,240,240,164,spektor,0,h,164,240,240,164,164,240,39360,39360,39360,dc,null,null,null,null,null,null,"[2,3]"
,canvas-keyboard-response,419,375183,0.0-6.0-5.68,62,,,,,clear_screen,null,null,,,critical,t,d,c,164,240,164,240,240,164,spektor,0,h,164,240,240,164,164,240,39360,39360,39360,dc,null,null,null,null,null,null,"[2,3]"
,canvas-keyboard-response,420,375384,0.0-6.0-0.69,62,,,,,pre trial waiting period,null,null,,,critical,c,t,d,240,164,164,240,154.6796,220.0396,spektor,0.14,h,164,240,240,164,154.6796,220.0396,39360,39360,34035.6388,td,null,null,null,null,null,null,"[2,3]"
,canvas-keyboard-response,421,375544,0.0-6.0-1.69,62,,,,,clear_screen,null,null,,,critical,c,t,d,240,164,164,240,154.6796,220.0396,spektor,0.14,h,164,240,240,164,154.6796,220.0396,39360,39360,34035.6388,td,null,null,null,null,null,null,"[2,3]"
,canvas-keyboard-response,422,376883,0.0-6.0-2.69,62,,,,,rectangles,null,null,,,critical,c,t,d,240,164,164,240,154.6796,220.0396,spektor,0.14,h,164,240,240,164,154.6796,220.0396,39360,39360,34035.6388,td,null,null,null,null,null,null,"[2,3]"
,canvas-keyboard-response,423,377043,0.0-6.0-3.69,62,,,,,clear_screen,null,null,,,critical,c,t,d,240,164,164,240,154.6796,220.0396,spektor,0.14,h,164,240,240,164,154.6796,220.0396,39360,39360,34035.6388,td,null,null,null,null,null,null,"[2,3]"
