"success","trial_type","trial_index","time_elapsed","internal_node_id","sub_n","timeout","failed_images","failed_audio","failed_video","screen_id","rt","response","stimulus","view_history","trial","r1","r2","r3","w1","h1","w2","h2","w3","h3","display","tdd","tdo","tw","th","cw","ch","dw","dh","ta","ca","da","probe","csls","csss","clls","clss","sa","la","probe_rects"
"true","fullscreen","0","1969","0.0-0.0","57","","","","","","","","","","","","","","","","","","","","","","","","","","","","","","","","","","","","","","",""
"true","preload","1","1979","0.0-1.0","57","false","[]","[]","[]","img preload","","","","","","","","","","","","","","","","","","","","","","","","","","","","","","","","","",""
"","survey-html-form","2","3951","0.0-2.0","57","","","","","enter-sub-number","1960","{""response"":""57""}","","","","","","","","","","","","","","","","","","","","","","","","","","","","","","","",""
"","image-button-response","3","13587","0.0-3.0","57","","","","","","9567","0","consent.png","","","","","","","","","","","","","","","","","","","","","","","","","","","","","","",""
"","html-button-response","4","22571","0.0-4.0","57","","","","","intro mssg","8982","0","<div style= ""font-size:25px;"" <p> <strong> Welcome! </strong><br> <p style=""color:#8B0000; font-size:25px;""><strong> Please do NOT exit full screen until you are done with the experiment. </strong> </p><p style=""font-size:25px;color:#8B0000;""> <strong> Your data will be lost <br> if you try to go back or refresh the page after the experiment starts. Feel free to click ""previous"" during the instructions, however.</strong> </p><br><p> <strong> Thanks in advance for your contribution to our research! </strong></p>","","","","","","","","","","","","","","","","","","","","","","","","","","","","","","",""
"","instructions","5","59130","0.0-5.0","57","","","","","instructions","36553","","","[{""page_index"":0,""viewing_time"":4722},{""page_index"":1,""viewing_time"":6729},{""page_index"":2,""viewing_time"":6576},{""page_index"":3,""viewing_time"":8314},{""page_index"":4,""viewing_time"":3877},{""page_index"":5,""viewing_time"":1377},{""page_index"":6,""viewing_time"":2607},{""page_index"":7,""viewing_time"":2351}]","","","","","","","","","","","","","","","","","","","","","","","","","","","","","",""
"","canvas-keyboard-response","6","59331","0.0-6.0-0.0","57","","","","","pre trial waiting period","null","null","","","catch","l","sw","sh","279","215","174","195","162","162","spektor","null","null","null","null","null","null","null","null","null","null","null","","180","200","260","200","36000","52000","[1,3]"
"","canvas-keyboard-response","7","59489","0.0-6.0-1.0","57","","","","","clear_screen","null","null","","","catch","l","sw","sh","279","215","174","195","162","162","spektor","null","null","null","null","null","null","null","null","null","null","null","","180","200","260","200","36000","52000","[1,3]"
"","canvas-keyboard-response","8","60822","0.0-6.0-2.0","57","","","","","rectangles","null","null","","","catch","l","sw","sh","279","215","174","195","162","162","spektor","null","null","null","null","null","null","null","null","null","null","null","","180","200","260","200","36000","52000","[1,3]"
"","canvas-keyboard-response","9","60907","0.0-6.0-3.0","57","","","","","clear_screen","79","1","","","catch","l","sw","sh","279","215","174","195","162","162","spektor","null","null","null","null","null","null","null","null","null","null","null","","180","200","260","200","36000","52000","[1,3]"
"","canvas-keyboard-response","10","62325","0.0-6.0-4.0","57","","","","","make choice","1405","1","","","catch","l","sw","sh","279","215","174","195","162","162","spektor","null","null","null","null","null","null","null","null","null","null","null","","180","200","260","200","36000","52000","[1,3]"
"","canvas-keyboard-response","11","62484","0.0-6.0-5.0","57","","","","","clear_screen","null","null","","","catch","l","sw","sh","279","215","174","195","162","162","spektor","null","null","null","null","null","null","null","null","null","null","null","","180","200","260","200","36000","52000","[1,3]"
"","canvas-keyboard-response","12","62686","0.0-6.0-0.1","57","","","","","pre trial waiting period","null","null","","","critical","t","d","c","240","164","227.1683","158.0083","164","240","trueblood","0.09","w","240","164","164","240","227.1683","158.0083","39360","39360","35894.4834","td","null","null","null","null","null","null","[1,2]"
"","canvas-keyboard-response","13","62850","0.0-6.0-1.1","57","","","","","clear_screen","null","null","","","critical","t","d","c","240","164","227.1683","158.0083","164","240","trueblood","0.09","w","240","164","164","240","227.1683","158.0083","39360","39360","35894.4834","td","null","null","null","null","null","null","[1,2]"
"","canvas-keyboard-response","14","64185","0.0-6.0-2.1","57","","","","","rectangles","null","null","","","critical","t","d","c","240","164","227.1683","158.0083","164","240","trueblood","0.09","w","240","164","164","240","227.1683","158.0083","39360","39360","35894.4834","td","null","null","null","null","null","null","[1,2]"
"","canvas-keyboard-response","15","64342","0.0-6.0-3.1","57","","","","","clear_screen","null","null","","","critical","t","d","c","240","164","227.1683","158.0083","164","240","trueblood","0.09","w","240","164","164","240","227.1683","158.0083","39360","39360","35894.4834","td","null","null","null","null","null","null","[1,2]"
"","canvas-keyboard-response","16","66819","0.0-6.0-4.1","57","","","","","make choice","2464","1","","","critical","t","d","c","240","164","227.1683","158.0083","164","240","trueblood","0.09","w","240","164","164","240","227.1683","158.0083","39360","39360","35894.4834","td","null","null","null","null","null","null","[1,2]"
"","canvas-keyboard-response","17","66981","0.0-6.0-5.1","57","","","","","clear_screen","null","null","","","critical","t","d","c","240","164","227.1683","158.0083","164","240","trueblood","0.09","w","240","164","164","240","227.1683","158.0083","39360","39360","35894.4834","td","null","null","null","null","null","null","[1,2]"
"","canvas-keyboard-response","18","67184","0.0-6.0-0.2","57","","","","","pre trial waiting period","null","null","","","catch","sh","l","sw","223","154","270","232","178","201","trueblood","null","null","null","null","null","null","null","null","null","null","null","","180","200","260","200","36000","52000","[1,2]"
"","canvas-keyboard-response","19","67348","0.0-6.0-1.2","57","","","","","clear_screen","null","null","","","catch","sh","l","sw","223","154","270","232","178","201","trueblood","null","null","null","null","null","null","null","null","null","null","null","","180","200","260","200","36000","52000","[1,2]"
"","canvas-keyboard-response","20","68687","0.0-6.0-2.2","57","","","","","rectangles","null","null","","","catch","sh","l","sw","223","154","270","232","178","201","trueblood","null","null","null","null","null","null","null","null","null","null","null","","180","200","260","200","36000","52000","[1,2]"
"","canvas-keyboard-response","21","68850","0.0-6.0-3.2","57","","","","","clear_screen","null","null","","","catch","sh","l","sw","223","154","270","232","178","201","trueblood","null","null","null","null","null","null","null","null","null","null","null","","180","200","260","200","36000","52000","[1,2]"
"","canvas-keyboard-response","22","70069","0.0-6.0-4.2","57","","","","","make choice","1205","2","","","catch","sh","l","sw","223","154","270","232","178","201","trueblood","null","null","null","null","null","null","null","null","null","null","null","","180","200","260","200","36000","52000","[1,2]"
"","canvas-keyboard-response","23","70227","0.0-6.0-5.2","57","","","","","clear_screen","null","null","","","catch","sh","l","sw","223","154","270","232","178","201","trueblood","null","null","null","null","null","null","null","null","null","null","null","","180","200","260","200","36000","52000","[1,2]"
"","canvas-keyboard-response","24","70428","0.0-6.0-0.3","57","","","","","pre trial waiting period","null","null","","","catch","sh","l","sw","173","156","177","286","208","184","trueblood","null","null","null","null","null","null","null","null","null","null","null","","180","200","260","200","36000","52000","[1,2]"
"","canvas-keyboard-response","25","70589","0.0-6.0-1.3","57","","","","","clear_screen","null","null","","","catch","sh","l","sw","173","156","177","286","208","184","trueblood","null","null","null","null","null","null","null","null","null","null","null","","180","200","260","200","36000","52000","[1,2]"
"","canvas-keyboard-response","26","71923","0.0-6.0-2.3","57","","","","","rectangles","null","null","","","catch","sh","l","sw","173","156","177","286","208","184","trueblood","null","null","null","null","null","null","null","null","null","null","null","","180","200","260","200","36000","52000","[1,2]"
"","canvas-keyboard-response","27","72080","0.0-6.0-3.3","57","","","","","clear_screen","null","null","","","catch","sh","l","sw","173","156","177","286","208","184","trueblood","null","null","null","null","null","null","null","null","null","null","null","","180","200","260","200","36000","52000","[1,2]"
"","canvas-keyboard-response","28","72962","0.0-6.0-4.3","57","","","","","make choice","875","2","","","catch","sh","l","sw","173","156","177","286","208","184","trueblood","null","null","null","null","null","null","null","null","null","null","null","","180","200","260","200","36000","52000","[1,2]"
"","canvas-keyboard-response","29","73124","0.0-6.0-5.3","57","","","","","clear_screen","null","null","","","catch","sh","l","sw","173","156","177","286","208","184","trueblood","null","null","null","null","null","null","null","null","null","null","null","","180","200","260","200","36000","52000","[1,2]"
"","canvas-keyboard-response","30","73325","0.0-6.0-0.4","57","","","","","pre trial waiting period","null","null","","","critical","d","t","c","220.0396","154.6796","240","164","164","240","trueblood","0.14","w","240","164","164","240","220.0396","154.6796","39360","39360","34035.6388","tc","null","null","null","null","null","null","[2,3]"
"","canvas-keyboard-response","31","73485","0.0-6.0-1.4","57","","","","","clear_screen","null","null","","","critical","d","t","c","220.0396","154.6796","240","164","164","240","trueblood","0.14","w","240","164","164","240","220.0396","154.6796","39360","39360","34035.6388","tc","null","null","null","null","null","null","[2,3]"
"","canvas-keyboard-response","32","74822","0.0-6.0-2.4","57","","","","","rectangles","null","null","","","critical","d","t","c","220.0396","154.6796","240","164","164","240","trueblood","0.14","w","240","164","164","240","220.0396","154.6796","39360","39360","34035.6388","tc","null","null","null","null","null","null","[2,3]"
"","canvas-keyboard-response","33","74982","0.0-6.0-3.4","57","","","","","clear_screen","null","null","","","critical","d","t","c","220.0396","154.6796","240","164","164","240","trueblood","0.14","w","240","164","164","240","220.0396","154.6796","39360","39360","34035.6388","tc","null","null","null","null","null","null","[2,3]"
"","canvas-keyboard-response","34","75946","0.0-6.0-4.4","57","","","","","make choice","956","3","","","critical","d","t","c","220.0396","154.6796","240","164","164","240","trueblood","0.14","w","240","164","164","240","220.0396","154.6796","39360","39360","34035.6388","tc","null","null","null","null","null","null","[2,3]"
"","canvas-keyboard-response","35","76106","0.0-6.0-5.4","57","","","","","clear_screen","null","null","","","critical","d","t","c","220.0396","154.6796","240","164","164","240","trueblood","0.14","w","240","164","164","240","220.0396","154.6796","39360","39360","34035.6388","tc","null","null","null","null","null","null","[2,3]"
"","canvas-keyboard-response","36","76309","0.0-6.0-0.5","57","","","","","pre trial waiting period","null","null","","","catch","l","sw","sh","199","232","186","188","167","203","trueblood","null","null","null","null","null","null","null","null","null","null","null","","180","200","260","200","36000","52000","[1,3]"
"","canvas-keyboard-response","37","76473","0.0-6.0-1.5","57","","","","","clear_screen","null","null","","","catch","l","sw","sh","199","232","186","188","167","203","trueblood","null","null","null","null","null","null","null","null","null","null","null","","180","200","260","200","36000","52000","[1,3]"
"","canvas-keyboard-response","38","77812","0.0-6.0-2.5","57","","","","","rectangles","null","null","","","catch","l","sw","sh","199","232","186","188","167","203","trueblood","null","null","null","null","null","null","null","null","null","null","null","","180","200","260","200","36000","52000","[1,3]"
"","canvas-keyboard-response","39","77974","0.0-6.0-3.5","57","","","","","clear_screen","null","null","","","catch","l","sw","sh","199","232","186","188","167","203","trueblood","null","null","null","null","null","null","null","null","null","null","null","","180","200","260","200","36000","52000","[1,3]"
"","canvas-keyboard-response","40","79099","0.0-6.0-4.5","57","","","","","make choice","1117","1","","","catch","l","sw","sh","199","232","186","188","167","203","trueblood","null","null","null","null","null","null","null","null","null","null","null","","180","200","260","200","36000","52000","[1,3]"
"","canvas-keyboard-response","41","79258","0.0-6.0-5.5","57","","","","","clear_screen","null","null","","","catch","l","sw","sh","199","232","186","188","167","203","trueblood","null","null","null","null","null","null","null","null","null","null","null","","180","200","260","200","36000","52000","[1,3]"
"","canvas-keyboard-response","42","79460","0.0-6.0-0.6","57","","","","","pre trial waiting period","null","null","","","critical","t","d","c","164","240","164","240","240","164","spektor","0","h","164","240","240","164","164","240","39360","39360","39360","tc","null","null","null","null","null","null","[1,3]"
"","canvas-keyboard-response","43","79619","0.0-6.0-1.6","57","","","","","clear_screen","null","null","","","critical","t","d","c","164","240","164","240","240","164","spektor","0","h","164","240","240","164","164","240","39360","39360","39360","tc","null","null","null","null","null","null","[1,3]"
"","canvas-keyboard-response","44","80954","0.0-6.0-2.6","57","","","","","rectangles","null","null","","","critical","t","d","c","164","240","164","240","240","164","spektor","0","h","164","240","240","164","164","240","39360","39360","39360","tc","null","null","null","null","null","null","[1,3]"
"","canvas-keyboard-response","45","81111","0.0-6.0-3.6","57","","","","","clear_screen","null","null","","","critical","t","d","c","164","240","164","240","240","164","spektor","0","h","164","240","240","164","164","240","39360","39360","39360","tc","null","null","null","null","null","null","[1,3]"
"","canvas-keyboard-response","46","81739","0.0-6.0-4.6","57","","","","","make choice","619","3","","","critical","t","d","c","164","240","164","240","240","164","spektor","0","h","164","240","240","164","164","240","39360","39360","39360","tc","null","null","null","null","null","null","[1,3]"
"","canvas-keyboard-response","47","81897","0.0-6.0-5.6","57","","","","","clear_screen","null","null","","","critical","t","d","c","164","240","164","240","240","164","spektor","0","h","164","240","240","164","164","240","39360","39360","39360","tc","null","null","null","null","null","null","[1,3]"
"","canvas-keyboard-response","48","82098","0.0-6.0-0.7","57","","","","","pre trial waiting period","null","null","","","catch","sw","sh","l","180","200","223","188","171","225","spektor","null","null","null","null","null","null","null","null","null","null","null","","180","200","260","200","36000","52000","[2,3]"
"","canvas-keyboard-response","49","82260","0.0-6.0-1.7","57","","","","","clear_screen","null","null","","","catch","sw","sh","l","180","200","223","188","171","225","spektor","null","null","null","null","null","null","null","null","null","null","null","","180","200","260","200","36000","52000","[2,3]"
"","canvas-keyboard-response","50","83599","0.0-6.0-2.7","57","","","","","rectangles","null","null","","","catch","sw","sh","l","180","200","223","188","171","225","spektor","null","null","null","null","null","null","null","null","null","null","null","","180","200","260","200","36000","52000","[2,3]"
"","canvas-keyboard-response","51","83759","0.0-6.0-3.7","57","","","","","clear_screen","null","null","","","catch","sw","sh","l","180","200","223","188","171","225","spektor","null","null","null","null","null","null","null","null","null","null","null","","180","200","260","200","36000","52000","[2,3]"
"","canvas-keyboard-response","52","84436","0.0-6.0-4.7","57","","","","","make choice","668","2","","","catch","sw","sh","l","180","200","223","188","171","225","spektor","null","null","null","null","null","null","null","null","null","null","null","","180","200","260","200","36000","52000","[2,3]"
"","canvas-keyboard-response","53","84594","0.0-6.0-5.7","57","","","","","clear_screen","null","null","","","catch","sw","sh","l","180","200","223","188","171","225","spektor","null","null","null","null","null","null","null","null","null","null","null","","180","200","260","200","36000","52000","[2,3]"
"","canvas-keyboard-response","54","84795","0.0-6.0-0.8","57","","","","","pre trial waiting period","null","null","","","critical","t","d","c","164","240","154.6796","220.0396","240","164","trueblood","0.14","h","164","240","240","164","154.6796","220.0396","39360","39360","34035.6388","tc","null","null","null","null","null","null","[1,3]"
"","canvas-keyboard-response","55","84956","0.0-6.0-1.8","57","","","","","clear_screen","null","null","","","critical","t","d","c","164","240","154.6796","220.0396","240","164","trueblood","0.14","h","164","240","240","164","154.6796","220.0396","39360","39360","34035.6388","tc","null","null","null","null","null","null","[1,3]"
"","canvas-keyboard-response","56","86294","0.0-6.0-2.8","57","","","","","rectangles","null","null","","","critical","t","d","c","164","240","154.6796","220.0396","240","164","trueblood","0.14","h","164","240","240","164","154.6796","220.0396","39360","39360","34035.6388","tc","null","null","null","null","null","null","[1,3]"
"","canvas-keyboard-response","57","86455","0.0-6.0-3.8","57","","","","","clear_screen","null","null","","","critical","t","d","c","164","240","154.6796","220.0396","240","164","trueblood","0.14","h","164","240","240","164","154.6796","220.0396","39360","39360","34035.6388","tc","null","null","null","null","null","null","[1,3]"
"","canvas-keyboard-response","58","87379","0.0-6.0-4.8","57","","","","","make choice","915","1","","","critical","t","d","c","164","240","154.6796","220.0396","240","164","trueblood","0.14","h","164","240","240","164","154.6796","220.0396","39360","39360","34035.6388","tc","null","null","null","null","null","null","[1,3]"
"","canvas-keyboard-response","59","87540","0.0-6.0-5.8","57","","","","","clear_screen","null","null","","","critical","t","d","c","164","240","154.6796","220.0396","240","164","trueblood","0.14","h","164","240","240","164","154.6796","220.0396","39360","39360","34035.6388","tc","null","null","null","null","null","null","[1,3]"
"","canvas-keyboard-response","60","87741","0.0-6.0-0.9","57","","","","","pre trial waiting period","null","null","","","critical","c","t","d","164","240","240","164","240","164","spektor","0","w","240","164","164","240","240","164","39360","39360","39360","tc","null","null","null","null","null","null","[2,1]"
"","canvas-keyboard-response","61","87906","0.0-6.0-1.9","57","","","","","clear_screen","null","null","","","critical","c","t","d","164","240","240","164","240","164","spektor","0","w","240","164","164","240","240","164","39360","39360","39360","tc","null","null","null","null","null","null","[2,1]"
"","canvas-keyboard-response","62","89245","0.0-6.0-2.9","57","","","","","rectangles","null","null","","","critical","c","t","d","164","240","240","164","240","164","spektor","0","w","240","164","164","240","240","164","39360","39360","39360","tc","null","null","null","null","null","null","[2,1]"
"","canvas-keyboard-response","63","89408","0.0-6.0-3.9","57","","","","","clear_screen","null","null","","","critical","c","t","d","164","240","240","164","240","164","spektor","0","w","240","164","164","240","240","164","39360","39360","39360","tc","null","null","null","null","null","null","[2,1]"
"","canvas-keyboard-response","64","91003","0.0-6.0-4.9","57","","","","","make choice","1582","1","","","critical","c","t","d","164","240","240","164","240","164","spektor","0","w","240","164","164","240","240","164","39360","39360","39360","tc","null","null","null","null","null","null","[2,1]"
"","canvas-keyboard-response","65","91161","0.0-6.0-5.9","57","","","","","clear_screen","null","null","","","critical","c","t","d","164","240","240","164","240","164","spektor","0","w","240","164","164","240","240","164","39360","39360","39360","tc","null","null","null","null","null","null","[2,1]"
"","canvas-keyboard-response","66","91362","0.0-6.0-0.10","57","","","","","pre trial waiting period","null","null","","","critical","d","c","t","162.6685","237.1485","240","164","164","240","spektor","0.02","h","164","240","240","164","162.6685","237.1485","39360","39360","38576.5967","dc","null","null","null","null","null","null","[1,2]"
"","canvas-keyboard-response","67","91526","0.0-6.0-1.10","57","","","","","clear_screen","null","null","","","critical","d","c","t","162.6685","237.1485","240","164","164","240","spektor","0.02","h","164","240","240","164","162.6685","237.1485","39360","39360","38576.5967","dc","null","null","null","null","null","null","[1,2]"
"","canvas-keyboard-response","68","92861","0.0-6.0-2.10","57","","","","","rectangles","null","null","","","critical","d","c","t","162.6685","237.1485","240","164","164","240","spektor","0.02","h","164","240","240","164","162.6685","237.1485","39360","39360","38576.5967","dc","null","null","null","null","null","null","[1,2]"
"","canvas-keyboard-response","69","93023","0.0-6.0-3.10","57","","","","","clear_screen","null","null","","","critical","d","c","t","162.6685","237.1485","240","164","164","240","spektor","0.02","h","164","240","240","164","162.6685","237.1485","39360","39360","38576.5967","dc","null","null","null","null","null","null","[1,2]"
"","canvas-keyboard-response","70","94716","0.0-6.0-4.10","57","","","","","make choice","1681","1","","","critical","d","c","t","162.6685","237.1485","240","164","164","240","spektor","0.02","h","164","240","240","164","162.6685","237.1485","39360","39360","38576.5967","dc","null","null","null","null","null","null","[1,2]"
"","canvas-keyboard-response","71","94875","0.0-6.0-5.10","57","","","","","clear_screen","null","null","","","critical","d","c","t","162.6685","237.1485","240","164","164","240","spektor","0.02","h","164","240","240","164","162.6685","237.1485","39360","39360","38576.5967","dc","null","null","null","null","null","null","[1,2]"
"","canvas-keyboard-response","72","95077","0.0-6.0-0.11","57","","","","","pre trial waiting period","null","null","","","critical","d","t","c","160.6713","232.8713","164","240","240","164","trueblood","0.05","h","164","240","240","164","160.6713","232.8713","39360","39360","37415.7294","td","null","null","null","null","null","null","[2,1]"
"","canvas-keyboard-response","73","95234","0.0-6.0-1.11","57","","","","","clear_screen","null","null","","","critical","d","t","c","160.6713","232.8713","164","240","240","164","trueblood","0.05","h","164","240","240","164","160.6713","232.8713","39360","39360","37415.7294","td","null","null","null","null","null","null","[2,1]"
"","canvas-keyboard-response","74","96570","0.0-6.0-2.11","57","","","","","rectangles","null","null","","","critical","d","t","c","160.6713","232.8713","164","240","240","164","trueblood","0.05","h","164","240","240","164","160.6713","232.8713","39360","39360","37415.7294","td","null","null","null","null","null","null","[2,1]"
"","canvas-keyboard-response","75","96728","0.0-6.0-3.11","57","","","","","clear_screen","null","null","","","critical","d","t","c","160.6713","232.8713","164","240","240","164","trueblood","0.05","h","164","240","240","164","160.6713","232.8713","39360","39360","37415.7294","td","null","null","null","null","null","null","[2,1]"
"","canvas-keyboard-response","76","97523","0.0-6.0-4.11","57","","","","","make choice","786","2","","","critical","d","t","c","160.6713","232.8713","164","240","240","164","trueblood","0.05","h","164","240","240","164","160.6713","232.8713","39360","39360","37415.7294","td","null","null","null","null","null","null","[2,1]"
"","canvas-keyboard-response","77","97684","0.0-6.0-5.11","57","","","","","clear_screen","null","null","","","critical","d","t","c","160.6713","232.8713","164","240","240","164","trueblood","0.05","h","164","240","240","164","160.6713","232.8713","39360","39360","37415.7294","td","null","null","null","null","null","null","[2,1]"
"","canvas-keyboard-response","78","97885","0.0-6.0-0.12","57","","","","","pre trial waiting period","null","null","","","catch","l","sh","sw","255","221","239","166","155","210","spektor","null","null","null","null","null","null","null","null","null","null","null","","180","200","260","200","36000","52000","[1,3]"
"","canvas-keyboard-response","79","98044","0.0-6.0-1.12","57","","","","","clear_screen","null","null","","","catch","l","sh","sw","255","221","239","166","155","210","spektor","null","null","null","null","null","null","null","null","null","null","null","","180","200","260","200","36000","52000","[1,3]"
"","canvas-keyboard-response","80","99384","0.0-6.0-2.12","57","","","","","rectangles","null","null","","","catch","l","sh","sw","255","221","239","166","155","210","spektor","null","null","null","null","null","null","null","null","null","null","null","","180","200","260","200","36000","52000","[1,3]"
"","canvas-keyboard-response","81","99544","0.0-6.0-3.12","57","","","","","clear_screen","null","null","","","catch","l","sh","sw","255","221","239","166","155","210","spektor","null","null","null","null","null","null","null","null","null","null","null","","180","200","260","200","36000","52000","[1,3]"
"","canvas-keyboard-response","82","100098","0.0-6.0-4.12","57","","","","","make choice","542","1","","","catch","l","sh","sw","255","221","239","166","155","210","spektor","null","null","null","null","null","null","null","null","null","null","null","","180","200","260","200","36000","52000","[1,3]"
"","canvas-keyboard-response","83","100256","0.0-6.0-5.12","57","","","","","clear_screen","null","null","","","catch","l","sh","sw","255","221","239","166","155","210","spektor","null","null","null","null","null","null","null","null","null","null","null","","180","200","260","200","36000","52000","[1,3]"
"","canvas-keyboard-response","84","100458","0.0-6.0-0.13","57","","","","","pre trial waiting period","null","null","","","critical","d","c","t","160.6713","232.8713","240","164","164","240","spektor","0.05","h","164","240","240","164","160.6713","232.8713","39360","39360","37415.7294","tc","null","null","null","null","null","null","[3,2]"
"","canvas-keyboard-response","85","100622","0.0-6.0-1.13","57","","","","","clear_screen","null","null","","","critical","d","c","t","160.6713","232.8713","240","164","164","240","spektor","0.05","h","164","240","240","164","160.6713","232.8713","39360","39360","37415.7294","tc","null","null","null","null","null","null","[3,2]"
"","canvas-keyboard-response","86","101956","0.0-6.0-2.13","57","","","","","rectangles","null","null","","","critical","d","c","t","160.6713","232.8713","240","164","164","240","spektor","0.05","h","164","240","240","164","160.6713","232.8713","39360","39360","37415.7294","tc","null","null","null","null","null","null","[3,2]"
"","canvas-keyboard-response","87","102118","0.0-6.0-3.13","57","","","","","clear_screen","null","null","","","critical","d","c","t","160.6713","232.8713","240","164","164","240","spektor","0.05","h","164","240","240","164","160.6713","232.8713","39360","39360","37415.7294","tc","null","null","null","null","null","null","[3,2]"
"","canvas-keyboard-response","88","104572","0.0-6.0-4.13","57","","","","","make choice","2449","2","","","critical","d","c","t","160.6713","232.8713","240","164","164","240","spektor","0.05","h","164","240","240","164","160.6713","232.8713","39360","39360","37415.7294","tc","null","null","null","null","null","null","[3,2]"
"","canvas-keyboard-response","89","104732","0.0-6.0-5.13","57","","","","","clear_screen","null","null","","","critical","d","c","t","160.6713","232.8713","240","164","164","240","spektor","0.05","h","164","240","240","164","160.6713","232.8713","39360","39360","37415.7294","tc","null","null","null","null","null","null","[3,2]"
"","canvas-keyboard-response","90","104935","0.0-6.0-0.14","57","","","","","pre trial waiting period","null","null","","","critical","c","t","d","240","164","164","240","162.6685","237.1485","trueblood","0.02","h","164","240","240","164","162.6685","237.1485","39360","39360","38576.5967","dc","null","null","null","null","null","null","[3,1]"
"","canvas-keyboard-response","91","105098","0.0-6.0-1.14","57","","","","","clear_screen","null","null","","","critical","c","t","d","240","164","164","240","162.6685","237.1485","trueblood","0.02","h","164","240","240","164","162.6685","237.1485","39360","39360","38576.5967","dc","null","null","null","null","null","null","[3,1]"
"","canvas-keyboard-response","92","106438","0.0-6.0-2.14","57","","","","","rectangles","null","null","","","critical","c","t","d","240","164","164","240","162.6685","237.1485","trueblood","0.02","h","164","240","240","164","162.6685","237.1485","39360","39360","38576.5967","dc","null","null","null","null","null","null","[3,1]"
"","canvas-keyboard-response","93","106602","0.0-6.0-3.14","57","","","","","clear_screen","null","null","","","critical","c","t","d","240","164","164","240","162.6685","237.1485","trueblood","0.02","h","164","240","240","164","162.6685","237.1485","39360","39360","38576.5967","dc","null","null","null","null","null","null","[3,1]"
"","canvas-keyboard-response","94","107628","0.0-6.0-4.14","57","","","","","make choice","1012","3","","","critical","c","t","d","240","164","164","240","162.6685","237.1485","trueblood","0.02","h","164","240","240","164","162.6685","237.1485","39360","39360","38576.5967","dc","null","null","null","null","null","null","[3,1]"
"","canvas-keyboard-response","95","107789","0.0-6.0-5.14","57","","","","","clear_screen","null","null","","","critical","c","t","d","240","164","164","240","162.6685","237.1485","trueblood","0.02","h","164","240","240","164","162.6685","237.1485","39360","39360","38576.5967","dc","null","null","null","null","null","null","[3,1]"
"","canvas-keyboard-response","96","107990","0.0-6.0-0.15","57","","","","","pre trial waiting period","null","null","","","critical","t","c","d","164","240","240","164","164","240","trueblood","0","h","164","240","240","164","164","240","39360","39360","39360","tc","null","null","null","null","null","null","[1,2]"
"","canvas-keyboard-response","97","108150","0.0-6.0-1.15","57","","","","","clear_screen","null","null","","","critical","t","c","d","164","240","240","164","164","240","trueblood","0","h","164","240","240","164","164","240","39360","39360","39360","tc","null","null","null","null","null","null","[1,2]"
"","canvas-keyboard-response","98","109480","0.0-6.0-2.15","57","","","","","rectangles","null","null","","","critical","t","c","d","164","240","240","164","164","240","trueblood","0","h","164","240","240","164","164","240","39360","39360","39360","tc","null","null","null","null","null","null","[1,2]"
"","canvas-keyboard-response","99","109639","0.0-6.0-3.15","57","","","","","clear_screen","null","null","","","critical","t","c","d","164","240","240","164","164","240","trueblood","0","h","164","240","240","164","164","240","39360","39360","39360","tc","null","null","null","null","null","null","[1,2]"
"","canvas-keyboard-response","100","110860","0.0-6.0-4.15","57","","","","","make choice","1210","1","","","critical","t","c","d","164","240","240","164","164","240","trueblood","0","h","164","240","240","164","164","240","39360","39360","39360","tc","null","null","null","null","null","null","[1,2]"
"","canvas-keyboard-response","101","111019","0.0-6.0-5.15","57","","","","","clear_screen","null","null","","","critical","t","c","d","164","240","240","164","164","240","trueblood","0","h","164","240","240","164","164","240","39360","39360","39360","tc","null","null","null","null","null","null","[1,2]"
"","canvas-keyboard-response","102","111221","0.0-6.0-0.16","57","","","","","pre trial waiting period","null","null","","","catch","l","sh","sw","260","223","177","143","205","237","trueblood","null","null","null","null","null","null","null","null","null","null","null","","180","200","260","200","36000","52000","[1,2]"
"","canvas-keyboard-response","103","111378","0.0-6.0-1.16","57","","","","","clear_screen","null","null","","","catch","l","sh","sw","260","223","177","143","205","237","trueblood","null","null","null","null","null","null","null","null","null","null","null","","180","200","260","200","36000","52000","[1,2]"
"","canvas-keyboard-response","104","112712","0.0-6.0-2.16","57","","","","","rectangles","null","null","","","catch","l","sh","sw","260","223","177","143","205","237","trueblood","null","null","null","null","null","null","null","null","null","null","null","","180","200","260","200","36000","52000","[1,2]"
"","canvas-keyboard-response","105","112870","0.0-6.0-3.16","57","","","","","clear_screen","null","null","","","catch","l","sh","sw","260","223","177","143","205","237","trueblood","null","null","null","null","null","null","null","null","null","null","null","","180","200","260","200","36000","52000","[1,2]"
"","canvas-keyboard-response","106","113780","0.0-6.0-4.16","57","","","","","make choice","899","1","","","catch","l","sh","sw","260","223","177","143","205","237","trueblood","null","null","null","null","null","null","null","null","null","null","null","","180","200","260","200","36000","52000","[1,2]"
"","canvas-keyboard-response","107","113939","0.0-6.0-5.16","57","","","","","clear_screen","null","null","","","catch","l","sh","sw","260","223","177","143","205","237","trueblood","null","null","null","null","null","null","null","null","null","null","null","","180","200","260","200","36000","52000","[1,2]"
"","canvas-keyboard-response","108","114141","0.0-6.0-0.17","57","","","","","pre trial waiting period","null","null","","","catch","l","sw","sh","232","185","172","171","198","212","spektor","null","null","null","null","null","null","null","null","null","null","null","","180","200","260","200","36000","52000","[1,3]"
"","canvas-keyboard-response","109","114305","0.0-6.0-1.17","57","","","","","clear_screen","null","null","","","catch","l","sw","sh","232","185","172","171","198","212","spektor","null","null","null","null","null","null","null","null","null","null","null","","180","200","260","200","36000","52000","[1,3]"
"","canvas-keyboard-response","110","115641","0.0-6.0-2.17","57","","","","","rectangles","null","null","","","catch","l","sw","sh","232","185","172","171","198","212","spektor","null","null","null","null","null","null","null","null","null","null","null","","180","200","260","200","36000","52000","[1,3]"
"","canvas-keyboard-response","111","115805","0.0-6.0-3.17","57","","","","","clear_screen","null","null","","","catch","l","sw","sh","232","185","172","171","198","212","spektor","null","null","null","null","null","null","null","null","null","null","null","","180","200","260","200","36000","52000","[1,3]"
"","canvas-keyboard-response","112","116434","0.0-6.0-4.17","57","","","","","make choice","622","3","","","catch","l","sw","sh","232","185","172","171","198","212","spektor","null","null","null","null","null","null","null","null","null","null","null","","180","200","260","200","36000","52000","[1,3]"
"","canvas-keyboard-response","113","116590","0.0-6.0-5.17","57","","","","","clear_screen","null","null","","","catch","l","sw","sh","232","185","172","171","198","212","spektor","null","null","null","null","null","null","null","null","null","null","null","","180","200","260","200","36000","52000","[1,3]"
"","canvas-keyboard-response","114","116791","0.0-6.0-0.18","57","","","","","pre trial waiting period","null","null","","","critical","t","c","d","240","164","164","240","227.1683","158.0083","trueblood","0.09","w","240","164","164","240","227.1683","158.0083","39360","39360","35894.4834","tc","null","null","null","null","null","null","[1,2]"
"","canvas-keyboard-response","115","116952","0.0-6.0-1.18","57","","","","","clear_screen","null","null","","","critical","t","c","d","240","164","164","240","227.1683","158.0083","trueblood","0.09","w","240","164","164","240","227.1683","158.0083","39360","39360","35894.4834","tc","null","null","null","null","null","null","[1,2]"
"","canvas-keyboard-response","116","118286","0.0-6.0-2.18","57","","","","","rectangles","null","null","","","critical","t","c","d","240","164","164","240","227.1683","158.0083","trueblood","0.09","w","240","164","164","240","227.1683","158.0083","39360","39360","35894.4834","tc","null","null","null","null","null","null","[1,2]"
"","canvas-keyboard-response","117","118442","0.0-6.0-3.18","57","","","","","clear_screen","null","null","","","critical","t","c","d","240","164","164","240","227.1683","158.0083","trueblood","0.09","w","240","164","164","240","227.1683","158.0083","39360","39360","35894.4834","tc","null","null","null","null","null","null","[1,2]"
"","canvas-keyboard-response","118","119418","0.0-6.0-4.18","57","","","","","make choice","962","1","","","critical","t","c","d","240","164","164","240","227.1683","158.0083","trueblood","0.09","w","240","164","164","240","227.1683","158.0083","39360","39360","35894.4834","tc","null","null","null","null","null","null","[1,2]"
"","canvas-keyboard-response","119","119574","0.0-6.0-5.18","57","","","","","clear_screen","null","null","","","critical","t","c","d","240","164","164","240","227.1683","158.0083","trueblood","0.09","w","240","164","164","240","227.1683","158.0083","39360","39360","35894.4834","tc","null","null","null","null","null","null","[1,2]"
"","canvas-keyboard-response","120","119776","0.0-6.0-0.19","57","","","","","pre trial waiting period","null","null","","","catch","sw","sh","l","180","200","210","155","169","226","spektor","null","null","null","null","null","null","null","null","null","null","null","","180","200","260","200","36000","52000","[1,3]"
"","canvas-keyboard-response","121","119938","0.0-6.0-1.19","57","","","","","clear_screen","null","null","","","catch","sw","sh","l","180","200","210","155","169","226","spektor","null","null","null","null","null","null","null","null","null","null","null","","180","200","260","200","36000","52000","[1,3]"
"","canvas-keyboard-response","122","121277","0.0-6.0-2.19","57","","","","","rectangles","null","null","","","catch","sw","sh","l","180","200","210","155","169","226","spektor","null","null","null","null","null","null","null","null","null","null","null","","180","200","260","200","36000","52000","[1,3]"
"","canvas-keyboard-response","123","121433","0.0-6.0-3.19","57","","","","","clear_screen","null","null","","","catch","sw","sh","l","180","200","210","155","169","226","spektor","null","null","null","null","null","null","null","null","null","null","null","","180","200","260","200","36000","52000","[1,3]"
"","canvas-keyboard-response","124","121883","0.0-6.0-4.19","57","","","","","make choice","443","3","","","catch","sw","sh","l","180","200","210","155","169","226","spektor","null","null","null","null","null","null","null","null","null","null","null","","180","200","260","200","36000","52000","[1,3]"
"","canvas-keyboard-response","125","122041","0.0-6.0-5.19","57","","","","","clear_screen","null","null","","","catch","sw","sh","l","180","200","210","155","169","226","spektor","null","null","null","null","null","null","null","null","null","null","null","","180","200","260","200","36000","52000","[1,3]"
"","canvas-keyboard-response","126","122241","0.0-6.0-0.20","57","","","","","pre trial waiting period","null","null","","","critical","c","d","t","164","240","237.1485","162.6685","240","164","spektor","0.02","w","240","164","164","240","237.1485","162.6685","39360","39360","38576.5967","dc","null","null","null","null","null","null","[2,1]"
"","canvas-keyboard-response","127","122398","0.0-6.0-1.20","57","","","","","clear_screen","null","null","","","critical","c","d","t","164","240","237.1485","162.6685","240","164","spektor","0.02","w","240","164","164","240","237.1485","162.6685","39360","39360","38576.5967","dc","null","null","null","null","null","null","[2,1]"
"","canvas-keyboard-response","128","123733","0.0-6.0-2.20","57","","","","","rectangles","null","null","","","critical","c","d","t","164","240","237.1485","162.6685","240","164","spektor","0.02","w","240","164","164","240","237.1485","162.6685","39360","39360","38576.5967","dc","null","null","null","null","null","null","[2,1]"
"","canvas-keyboard-response","129","123894","0.0-6.0-3.20","57","","","","","clear_screen","null","null","","","critical","c","d","t","164","240","237.1485","162.6685","240","164","spektor","0.02","w","240","164","164","240","237.1485","162.6685","39360","39360","38576.5967","dc","null","null","null","null","null","null","[2,1]"
"","canvas-keyboard-response","130","125314","0.0-6.0-4.20","57","","","","","make choice","1407","1","","","critical","c","d","t","164","240","237.1485","162.6685","240","164","spektor","0.02","w","240","164","164","240","237.1485","162.6685","39360","39360","38576.5967","dc","null","null","null","null","null","null","[2,1]"
"","canvas-keyboard-response","131","125472","0.0-6.0-5.20","57","","","","","clear_screen","null","null","","","critical","c","d","t","164","240","237.1485","162.6685","240","164","spektor","0.02","w","240","164","164","240","237.1485","162.6685","39360","39360","38576.5967","dc","null","null","null","null","null","null","[2,1]"
"","canvas-keyboard-response","132","125673","0.0-6.0-0.21","57","","","","","pre trial waiting period","null","null","","","critical","c","t","d","240","164","164","240","154.6796","220.0396","spektor","0.14","h","164","240","240","164","154.6796","220.0396","39360","39360","34035.6388","dc","null","null","null","null","null","null","[3,1]"
"","canvas-keyboard-response","133","125838","0.0-6.0-1.21","57","","","","","clear_screen","null","null","","","critical","c","t","d","240","164","164","240","154.6796","220.0396","spektor","0.14","h","164","240","240","164","154.6796","220.0396","39360","39360","34035.6388","dc","null","null","null","null","null","null","[3,1]"
"","canvas-keyboard-response","134","127174","0.0-6.0-2.21","57","","","","","rectangles","null","null","","","critical","c","t","d","240","164","164","240","154.6796","220.0396","spektor","0.14","h","164","240","240","164","154.6796","220.0396","39360","39360","34035.6388","dc","null","null","null","null","null","null","[3,1]"
"","canvas-keyboard-response","135","127334","0.0-6.0-3.21","57","","","","","clear_screen","null","null","","","critical","c","t","d","240","164","164","240","154.6796","220.0396","spektor","0.14","h","164","240","240","164","154.6796","220.0396","39360","39360","34035.6388","dc","null","null","null","null","null","null","[3,1]"
"","canvas-keyboard-response","136","127891","0.0-6.0-4.21","57","","","","","make choice","552","1","","","critical","c","t","d","240","164","164","240","154.6796","220.0396","spektor","0.14","h","164","240","240","164","154.6796","220.0396","39360","39360","34035.6388","dc","null","null","null","null","null","null","[3,1]"
"","canvas-keyboard-response","137","128051","0.0-6.0-5.21","57","","","","","clear_screen","null","null","","","critical","c","t","d","240","164","164","240","154.6796","220.0396","spektor","0.14","h","164","240","240","164","154.6796","220.0396","39360","39360","34035.6388","dc","null","null","null","null","null","null","[3,1]"
"","canvas-keyboard-response","138","128253","0.0-6.0-0.22","57","","","","","pre trial waiting period","null","null","","","critical","c","d","t","240","164","154.6796","220.0396","164","240","trueblood","0.14","h","164","240","240","164","154.6796","220.0396","39360","39360","34035.6388","dc","null","null","null","null","null","null","[2,1]"
"","canvas-keyboard-response","139","128415","0.0-6.0-1.22","57","","","","","clear_screen","null","null","","","critical","c","d","t","240","164","154.6796","220.0396","164","240","trueblood","0.14","h","164","240","240","164","154.6796","220.0396","39360","39360","34035.6388","dc","null","null","null","null","null","null","[2,1]"
"","canvas-keyboard-response","140","129750","0.0-6.0-2.22","57","","","","","rectangles","null","null","","","critical","c","d","t","240","164","154.6796","220.0396","164","240","trueblood","0.14","h","164","240","240","164","154.6796","220.0396","39360","39360","34035.6388","dc","null","null","null","null","null","null","[2,1]"
"","canvas-keyboard-response","141","129913","0.0-6.0-3.22","57","","","","","clear_screen","null","null","","","critical","c","d","t","240","164","154.6796","220.0396","164","240","trueblood","0.14","h","164","240","240","164","154.6796","220.0396","39360","39360","34035.6388","dc","null","null","null","null","null","null","[2,1]"
"","canvas-keyboard-response","142","131228","0.0-6.0-4.22","57","","","","","make choice","1306","1","","","critical","c","d","t","240","164","154.6796","220.0396","164","240","trueblood","0.14","h","164","240","240","164","154.6796","220.0396","39360","39360","34035.6388","dc","null","null","null","null","null","null","[2,1]"
"","canvas-keyboard-response","143","131386","0.0-6.0-5.22","57","","","","","clear_screen","null","null","","","critical","c","d","t","240","164","154.6796","220.0396","164","240","trueblood","0.14","h","164","240","240","164","154.6796","220.0396","39360","39360","34035.6388","dc","null","null","null","null","null","null","[2,1]"
"","canvas-keyboard-response","144","131589","0.0-6.0-0.23","57","","","","","pre trial waiting period","null","null","","","critical","d","t","c","162.6685","237.1485","164","240","240","164","spektor","0.02","h","164","240","240","164","162.6685","237.1485","39360","39360","38576.5967","tc","null","null","null","null","null","null","[2,3]"
"","canvas-keyboard-response","145","131749","0.0-6.0-1.23","57","","","","","clear_screen","null","null","","","critical","d","t","c","162.6685","237.1485","164","240","240","164","spektor","0.02","h","164","240","240","164","162.6685","237.1485","39360","39360","38576.5967","tc","null","null","null","null","null","null","[2,3]"
"","canvas-keyboard-response","146","133085","0.0-6.0-2.23","57","","","","","rectangles","null","null","","","critical","d","t","c","162.6685","237.1485","164","240","240","164","spektor","0.02","h","164","240","240","164","162.6685","237.1485","39360","39360","38576.5967","tc","null","null","null","null","null","null","[2,3]"
"","canvas-keyboard-response","147","133247","0.0-6.0-3.23","57","","","","","clear_screen","null","null","","","critical","d","t","c","162.6685","237.1485","164","240","240","164","spektor","0.02","h","164","240","240","164","162.6685","237.1485","39360","39360","38576.5967","tc","null","null","null","null","null","null","[2,3]"
"","canvas-keyboard-response","148","134699","0.0-6.0-4.23","57","","","","","make choice","1441","3","","","critical","d","t","c","162.6685","237.1485","164","240","240","164","spektor","0.02","h","164","240","240","164","162.6685","237.1485","39360","39360","38576.5967","tc","null","null","null","null","null","null","[2,3]"
"","canvas-keyboard-response","149","134862","0.0-6.0-5.23","57","","","","","clear_screen","null","null","","","critical","d","t","c","162.6685","237.1485","164","240","240","164","spektor","0.02","h","164","240","240","164","162.6685","237.1485","39360","39360","38576.5967","tc","null","null","null","null","null","null","[2,3]"
"","canvas-keyboard-response","150","135065","0.0-6.0-0.24","57","","","","","pre trial waiting period","null","null","","","critical","d","t","c","227.1683","158.0083","240","164","164","240","spektor","0.09","w","240","164","164","240","227.1683","158.0083","39360","39360","35894.4834","dc","null","null","null","null","null","null","[1,3]"
"","canvas-keyboard-response","151","135229","0.0-6.0-1.24","57","","","","","clear_screen","null","null","","","critical","d","t","c","227.1683","158.0083","240","164","164","240","spektor","0.09","w","240","164","164","240","227.1683","158.0083","39360","39360","35894.4834","dc","null","null","null","null","null","null","[1,3]"
"","canvas-keyboard-response","152","136566","0.0-6.0-2.24","57","","","","","rectangles","null","null","","","critical","d","t","c","227.1683","158.0083","240","164","164","240","spektor","0.09","w","240","164","164","240","227.1683","158.0083","39360","39360","35894.4834","dc","null","null","null","null","null","null","[1,3]"
"","canvas-keyboard-response","153","136727","0.0-6.0-3.24","57","","","","","clear_screen","null","null","","","critical","d","t","c","227.1683","158.0083","240","164","164","240","spektor","0.09","w","240","164","164","240","227.1683","158.0083","39360","39360","35894.4834","dc","null","null","null","null","null","null","[1,3]"
"","canvas-keyboard-response","154","138259","0.0-6.0-4.24","57","","","","","make choice","1523","3","","","critical","d","t","c","227.1683","158.0083","240","164","164","240","spektor","0.09","w","240","164","164","240","227.1683","158.0083","39360","39360","35894.4834","dc","null","null","null","null","null","null","[1,3]"
"","canvas-keyboard-response","155","138422","0.0-6.0-5.24","57","","","","","clear_screen","null","null","","","critical","d","t","c","227.1683","158.0083","240","164","164","240","spektor","0.09","w","240","164","164","240","227.1683","158.0083","39360","39360","35894.4834","dc","null","null","null","null","null","null","[1,3]"
"","canvas-keyboard-response","156","138626","0.0-6.0-0.25","57","","","","","pre trial waiting period","null","null","","","critical","d","t","c","240","164","240","164","164","240","spektor","0","w","240","164","164","240","240","164","39360","39360","39360","dc","null","null","null","null","null","null","[1,3]"
"","canvas-keyboard-response","157","138791","0.0-6.0-1.25","57","","","","","clear_screen","null","null","","","critical","d","t","c","240","164","240","164","164","240","spektor","0","w","240","164","164","240","240","164","39360","39360","39360","dc","null","null","null","null","null","null","[1,3]"
"","canvas-keyboard-response","158","140126","0.0-6.0-2.25","57","","","","","rectangles","null","null","","","critical","d","t","c","240","164","240","164","164","240","spektor","0","w","240","164","164","240","240","164","39360","39360","39360","dc","null","null","null","null","null","null","[1,3]"
"","canvas-keyboard-response","159","140281","0.0-6.0-3.25","57","","","","","clear_screen","null","null","","","critical","d","t","c","240","164","240","164","164","240","spektor","0","w","240","164","164","240","240","164","39360","39360","39360","dc","null","null","null","null","null","null","[1,3]"
"","canvas-keyboard-response","160","141571","0.0-6.0-4.25","57","","","","","make choice","1279","1","","","critical","d","t","c","240","164","240","164","164","240","spektor","0","w","240","164","164","240","240","164","39360","39360","39360","dc","null","null","null","null","null","null","[1,3]"
"","canvas-keyboard-response","161","141730","0.0-6.0-5.25","57","","","","","clear_screen","null","null","","","critical","d","t","c","240","164","240","164","164","240","spektor","0","w","240","164","164","240","240","164","39360","39360","39360","dc","null","null","null","null","null","null","[1,3]"
"","canvas-keyboard-response","162","141934","0.0-6.0-0.26","57","","","","","pre trial waiting period","null","null","","","critical","c","d","t","240","164","160.6713","232.8713","164","240","spektor","0.05","h","164","240","240","164","160.6713","232.8713","39360","39360","37415.7294","dc","null","null","null","null","null","null","[2,1]"
"","canvas-keyboard-response","163","142095","0.0-6.0-1.26","57","","","","","clear_screen","null","null","","","critical","c","d","t","240","164","160.6713","232.8713","164","240","spektor","0.05","h","164","240","240","164","160.6713","232.8713","39360","39360","37415.7294","dc","null","null","null","null","null","null","[2,1]"
"","canvas-keyboard-response","164","143430","0.0-6.0-2.26","57","","","","","rectangles","null","null","","","critical","c","d","t","240","164","160.6713","232.8713","164","240","spektor","0.05","h","164","240","240","164","160.6713","232.8713","39360","39360","37415.7294","dc","null","null","null","null","null","null","[2,1]"
"","canvas-keyboard-response","165","143587","0.0-6.0-3.26","57","","","","","clear_screen","null","null","","","critical","c","d","t","240","164","160.6713","232.8713","164","240","spektor","0.05","h","164","240","240","164","160.6713","232.8713","39360","39360","37415.7294","dc","null","null","null","null","null","null","[2,1]"
"","canvas-keyboard-response","166","145179","0.0-6.0-4.26","57","","","","","make choice","1580","1","","","critical","c","d","t","240","164","160.6713","232.8713","164","240","spektor","0.05","h","164","240","240","164","160.6713","232.8713","39360","39360","37415.7294","dc","null","null","null","null","null","null","[2,1]"
"","canvas-keyboard-response","167","145337","0.0-6.0-5.26","57","","","","","clear_screen","null","null","","","critical","c","d","t","240","164","160.6713","232.8713","164","240","spektor","0.05","h","164","240","240","164","160.6713","232.8713","39360","39360","37415.7294","dc","null","null","null","null","null","null","[2,1]"
"","canvas-keyboard-response","168","145539","0.0-6.0-0.27","57","","","","","pre trial waiting period","null","null","","","catch","sw","sh","l","180","200","218","210","226","288","spektor","null","null","null","null","null","null","null","null","null","null","null","","180","200","260","200","36000","52000","[2,3]"
"","canvas-keyboard-response","169","145698","0.0-6.0-1.27","57","","","","","clear_screen","null","null","","","catch","sw","sh","l","180","200","218","210","226","288","spektor","null","null","null","null","null","null","null","null","null","null","null","","180","200","260","200","36000","52000","[2,3]"
"","canvas-keyboard-response","170","147035","0.0-6.0-2.27","57","","","","","rectangles","null","null","","","catch","sw","sh","l","180","200","218","210","226","288","spektor","null","null","null","null","null","null","null","null","null","null","null","","180","200","260","200","36000","52000","[2,3]"
"","canvas-keyboard-response","171","147198","0.0-6.0-3.27","57","","","","","clear_screen","null","null","","","catch","sw","sh","l","180","200","218","210","226","288","spektor","null","null","null","null","null","null","null","null","null","null","null","","180","200","260","200","36000","52000","[2,3]"
"","canvas-keyboard-response","172","147810","0.0-6.0-4.27","57","","","","","make choice","601","3","","","catch","sw","sh","l","180","200","218","210","226","288","spektor","null","null","null","null","null","null","null","null","null","null","null","","180","200","260","200","36000","52000","[2,3]"
"","canvas-keyboard-response","173","147966","0.0-6.0-5.27","57","","","","","clear_screen","null","null","","","catch","sw","sh","l","180","200","218","210","226","288","spektor","null","null","null","null","null","null","null","null","null","null","null","","180","200","260","200","36000","52000","[2,3]"
"","canvas-keyboard-response","174","148168","0.0-6.0-0.28","57","","","","","pre trial waiting period","null","null","","","critical","c","t","d","240","164","164","240","158.0083","227.1683","spektor","0.09","h","164","240","240","164","158.0083","227.1683","39360","39360","35894.4834","td","null","null","null","null","null","null","[2,3]"
"","canvas-keyboard-response","175","148327","0.0-6.0-1.28","57","","","","","clear_screen","null","null","","","critical","c","t","d","240","164","164","240","158.0083","227.1683","spektor","0.09","h","164","240","240","164","158.0083","227.1683","39360","39360","35894.4834","td","null","null","null","null","null","null","[2,3]"
"","canvas-keyboard-response","176","149662","0.0-6.0-2.28","57","","","","","rectangles","null","null","","","critical","c","t","d","240","164","164","240","158.0083","227.1683","spektor","0.09","h","164","240","240","164","158.0083","227.1683","39360","39360","35894.4834","td","null","null","null","null","null","null","[2,3]"
"","canvas-keyboard-response","177","149825","0.0-6.0-3.28","57","","","","","clear_screen","null","null","","","critical","c","t","d","240","164","164","240","158.0083","227.1683","spektor","0.09","h","164","240","240","164","158.0083","227.1683","39360","39360","35894.4834","td","null","null","null","null","null","null","[2,3]"
"","canvas-keyboard-response","178","152140","0.0-6.0-4.28","57","","","","","make choice","2306","3","","","critical","c","t","d","240","164","164","240","158.0083","227.1683","spektor","0.09","h","164","240","240","164","158.0083","227.1683","39360","39360","35894.4834","td","null","null","null","null","null","null","[2,3]"
"","canvas-keyboard-response","179","152299","0.0-6.0-5.28","57","","","","","clear_screen","null","null","","","critical","c","t","d","240","164","164","240","158.0083","227.1683","spektor","0.09","h","164","240","240","164","158.0083","227.1683","39360","39360","35894.4834","td","null","null","null","null","null","null","[2,3]"
"","canvas-keyboard-response","180","152500","0.0-6.0-0.29","57","","","","","pre trial waiting period","null","null","","","catch","sw","sh","l","180","200","231","214","279","236","trueblood","null","null","null","null","null","null","null","null","null","null","null","","180","200","260","200","36000","52000","[1,3]"
"","canvas-keyboard-response","181","152660","0.0-6.0-1.29","57","","","","","clear_screen","null","null","","","catch","sw","sh","l","180","200","231","214","279","236","trueblood","null","null","null","null","null","null","null","null","null","null","null","","180","200","260","200","36000","52000","[1,3]"
"","canvas-keyboard-response","182","153994","0.0-6.0-2.29","57","","","","","rectangles","null","null","","","catch","sw","sh","l","180","200","231","214","279","236","trueblood","null","null","null","null","null","null","null","null","null","null","null","","180","200","260","200","36000","52000","[1,3]"
"","canvas-keyboard-response","183","154156","0.0-6.0-3.29","57","","","","","clear_screen","null","null","","","catch","sw","sh","l","180","200","231","214","279","236","trueblood","null","null","null","null","null","null","null","null","null","null","null","","180","200","260","200","36000","52000","[1,3]"
"","canvas-keyboard-response","184","154699","0.0-6.0-4.29","57","","","","","make choice","531","3","","","catch","sw","sh","l","180","200","231","214","279","236","trueblood","null","null","null","null","null","null","null","null","null","null","null","","180","200","260","200","36000","52000","[1,3]"
"","canvas-keyboard-response","185","154857","0.0-6.0-5.29","57","","","","","clear_screen","null","null","","","catch","sw","sh","l","180","200","231","214","279","236","trueblood","null","null","null","null","null","null","null","null","null","null","null","","180","200","260","200","36000","52000","[1,3]"
"","canvas-keyboard-response","186","155059","0.0-6.0-0.30","57","","","","","pre trial waiting period","null","null","","","critical","c","d","t","240","164","164","240","164","240","trueblood","0","h","164","240","240","164","164","240","39360","39360","39360","dc","null","null","null","null","null","null","[2,1]"
"","canvas-keyboard-response","187","155222","0.0-6.0-1.30","57","","","","","clear_screen","null","null","","","critical","c","d","t","240","164","164","240","164","240","trueblood","0","h","164","240","240","164","164","240","39360","39360","39360","dc","null","null","null","null","null","null","[2,1]"
"","canvas-keyboard-response","188","156561","0.0-6.0-2.30","57","","","","","rectangles","null","null","","","critical","c","d","t","240","164","164","240","164","240","trueblood","0","h","164","240","240","164","164","240","39360","39360","39360","dc","null","null","null","null","null","null","[2,1]"
"","canvas-keyboard-response","189","156722","0.0-6.0-3.30","57","","","","","clear_screen","null","null","","","critical","c","d","t","240","164","164","240","164","240","trueblood","0","h","164","240","240","164","164","240","39360","39360","39360","dc","null","null","null","null","null","null","[2,1]"
"","canvas-keyboard-response","190","157580","0.0-6.0-4.30","57","","","","","make choice","845","2","","","critical","c","d","t","240","164","164","240","164","240","trueblood","0","h","164","240","240","164","164","240","39360","39360","39360","dc","null","null","null","null","null","null","[2,1]"
"","canvas-keyboard-response","191","157742","0.0-6.0-5.30","57","","","","","clear_screen","null","null","","","critical","c","d","t","240","164","164","240","164","240","trueblood","0","h","164","240","240","164","164","240","39360","39360","39360","dc","null","null","null","null","null","null","[2,1]"
"","canvas-keyboard-response","192","157944","0.0-6.0-0.31","57","","","","","pre trial waiting period","null","null","","","catch","sw","l","sh","180","200","229","291","236","207","spektor","null","null","null","null","null","null","null","null","null","null","null","","180","200","260","200","36000","52000","[1,2]"
"","canvas-keyboard-response","193","158105","0.0-6.0-1.31","57","","","","","clear_screen","null","null","","","catch","sw","l","sh","180","200","229","291","236","207","spektor","null","null","null","null","null","null","null","null","null","null","null","","180","200","260","200","36000","52000","[1,2]"
"","canvas-keyboard-response","194","159443","0.0-6.0-2.31","57","","","","","rectangles","null","null","","","catch","sw","l","sh","180","200","229","291","236","207","spektor","null","null","null","null","null","null","null","null","null","null","null","","180","200","260","200","36000","52000","[1,2]"
"","canvas-keyboard-response","195","159605","0.0-6.0-3.31","57","","","","","clear_screen","null","null","","","catch","sw","l","sh","180","200","229","291","236","207","spektor","null","null","null","null","null","null","null","null","null","null","null","","180","200","260","200","36000","52000","[1,2]"
"","canvas-keyboard-response","196","160027","0.0-6.0-4.31","57","","","","","make choice","413","2","","","catch","sw","l","sh","180","200","229","291","236","207","spektor","null","null","null","null","null","null","null","null","null","null","null","","180","200","260","200","36000","52000","[1,2]"
"","canvas-keyboard-response","197","160187","0.0-6.0-5.31","57","","","","","clear_screen","null","null","","","catch","sw","l","sh","180","200","229","291","236","207","spektor","null","null","null","null","null","null","null","null","null","null","null","","180","200","260","200","36000","52000","[1,2]"
"","canvas-keyboard-response","198","160388","0.0-6.0-0.32","57","","","","","pre trial waiting period","null","null","","","catch","sw","l","sh","180","200","278","166","188","201","trueblood","null","null","null","null","null","null","null","null","null","null","null","","180","200","260","200","36000","52000","[2,3]"
"","canvas-keyboard-response","199","160550","0.0-6.0-1.32","57","","","","","clear_screen","null","null","","","catch","sw","l","sh","180","200","278","166","188","201","trueblood","null","null","null","null","null","null","null","null","null","null","null","","180","200","260","200","36000","52000","[2,3]"
"","canvas-keyboard-response","200","161887","0.0-6.0-2.32","57","","","","","rectangles","null","null","","","catch","sw","l","sh","180","200","278","166","188","201","trueblood","null","null","null","null","null","null","null","null","null","null","null","","180","200","260","200","36000","52000","[2,3]"
"","canvas-keyboard-response","201","162046","0.0-6.0-3.32","57","","","","","clear_screen","null","null","","","catch","sw","l","sh","180","200","278","166","188","201","trueblood","null","null","null","null","null","null","null","null","null","null","null","","180","200","260","200","36000","52000","[2,3]"
"","canvas-keyboard-response","202","163596","0.0-6.0-4.32","57","","","","","make choice","1537","2","","","catch","sw","l","sh","180","200","278","166","188","201","trueblood","null","null","null","null","null","null","null","null","null","null","null","","180","200","260","200","36000","52000","[2,3]"
"","canvas-keyboard-response","203","163755","0.0-6.0-5.32","57","","","","","clear_screen","null","null","","","catch","sw","l","sh","180","200","278","166","188","201","trueblood","null","null","null","null","null","null","null","null","null","null","null","","180","200","260","200","36000","52000","[2,3]"
"","canvas-keyboard-response","204","163957","0.0-6.0-0.33","57","","","","","pre trial waiting period","null","null","","","catch","sw","l","sh","180","200","285","206","186","209","trueblood","null","null","null","null","null","null","null","null","null","null","null","","180","200","260","200","36000","52000","[1,2]"
"","canvas-keyboard-response","205","164115","0.0-6.0-1.33","57","","","","","clear_screen","null","null","","","catch","sw","l","sh","180","200","285","206","186","209","trueblood","null","null","null","null","null","null","null","null","null","null","null","","180","200","260","200","36000","52000","[1,2]"
"","canvas-keyboard-response","206","165452","0.0-6.0-2.33","57","","","","","rectangles","null","null","","","catch","sw","l","sh","180","200","285","206","186","209","trueblood","null","null","null","null","null","null","null","null","null","null","null","","180","200","260","200","36000","52000","[1,2]"
"","canvas-keyboard-response","207","165615","0.0-6.0-3.33","57","","","","","clear_screen","null","null","","","catch","sw","l","sh","180","200","285","206","186","209","trueblood","null","null","null","null","null","null","null","null","null","null","null","","180","200","260","200","36000","52000","[1,2]"
"","canvas-keyboard-response","208","166060","0.0-6.0-4.33","57","","","","","make choice","436","2","","","catch","sw","l","sh","180","200","285","206","186","209","trueblood","null","null","null","null","null","null","null","null","null","null","null","","180","200","260","200","36000","52000","[1,2]"
"","canvas-keyboard-response","209","166219","0.0-6.0-5.33","57","","","","","clear_screen","null","null","","","catch","sw","l","sh","180","200","285","206","186","209","trueblood","null","null","null","null","null","null","null","null","null","null","null","","180","200","260","200","36000","52000","[1,2]"
"","canvas-keyboard-response","210","166420","0.0-6.0-0.34","57","","","","","pre trial waiting period","null","null","","","critical","d","t","c","162.6685","237.1485","164","240","240","164","spektor","0.02","h","164","240","240","164","162.6685","237.1485","39360","39360","38576.5967","td","null","null","null","null","null","null","[2,1]"
"","canvas-keyboard-response","211","166584","0.0-6.0-1.34","57","","","","","clear_screen","null","null","","","critical","d","t","c","162.6685","237.1485","164","240","240","164","spektor","0.02","h","164","240","240","164","162.6685","237.1485","39360","39360","38576.5967","td","null","null","null","null","null","null","[2,1]"
"","canvas-keyboard-response","212","167920","0.0-6.0-2.34","57","","","","","rectangles","null","null","","","critical","d","t","c","162.6685","237.1485","164","240","240","164","spektor","0.02","h","164","240","240","164","162.6685","237.1485","39360","39360","38576.5967","td","null","null","null","null","null","null","[2,1]"
"","canvas-keyboard-response","213","168079","0.0-6.0-3.34","57","","","","","clear_screen","null","null","","","critical","d","t","c","162.6685","237.1485","164","240","240","164","spektor","0.02","h","164","240","240","164","162.6685","237.1485","39360","39360","38576.5967","td","null","null","null","null","null","null","[2,1]"
"","canvas-keyboard-response","214","168649","0.0-6.0-4.34","57","","","","","make choice","560","2","","","critical","d","t","c","162.6685","237.1485","164","240","240","164","spektor","0.02","h","164","240","240","164","162.6685","237.1485","39360","39360","38576.5967","td","null","null","null","null","null","null","[2,1]"
"","canvas-keyboard-response","215","168806","0.0-6.0-5.34","57","","","","","clear_screen","null","null","","","critical","d","t","c","162.6685","237.1485","164","240","240","164","spektor","0.02","h","164","240","240","164","162.6685","237.1485","39360","39360","38576.5967","td","null","null","null","null","null","null","[2,1]"
"","canvas-keyboard-response","216","169007","0.0-6.0-0.35","57","","","","","pre trial waiting period","null","null","","","catch","sw","l","sh","180","200","239","294","233","160","trueblood","null","null","null","null","null","null","null","null","null","null","null","","180","200","260","200","36000","52000","[1,2]"
"","canvas-keyboard-response","217","169168","0.0-6.0-1.35","57","","","","","clear_screen","null","null","","","catch","sw","l","sh","180","200","239","294","233","160","trueblood","null","null","null","null","null","null","null","null","null","null","null","","180","200","260","200","36000","52000","[1,2]"
"","canvas-keyboard-response","218","170505","0.0-6.0-2.35","57","","","","","rectangles","null","null","","","catch","sw","l","sh","180","200","239","294","233","160","trueblood","null","null","null","null","null","null","null","null","null","null","null","","180","200","260","200","36000","52000","[1,2]"
"","canvas-keyboard-response","219","170664","0.0-6.0-3.35","57","","","","","clear_screen","null","null","","","catch","sw","l","sh","180","200","239","294","233","160","trueblood","null","null","null","null","null","null","null","null","null","null","null","","180","200","260","200","36000","52000","[1,2]"
"","canvas-keyboard-response","220","171022","0.0-6.0-4.35","57","","","","","make choice","348","2","","","catch","sw","l","sh","180","200","239","294","233","160","trueblood","null","null","null","null","null","null","null","null","null","null","null","","180","200","260","200","36000","52000","[1,2]"
"","canvas-keyboard-response","221","171180","0.0-6.0-5.35","57","","","","","clear_screen","null","null","","","catch","sw","l","sh","180","200","239","294","233","160","trueblood","null","null","null","null","null","null","null","null","null","null","null","","180","200","260","200","36000","52000","[1,2]"
"","canvas-keyboard-response","222","171385","0.0-6.0-0.36","57","","","","","pre trial waiting period","null","null","","","critical","d","t","c","160.6713","232.8713","164","240","240","164","trueblood","0.05","h","164","240","240","164","160.6713","232.8713","39360","39360","37415.7294","dc","null","null","null","null","null","null","[1,3]"
"","canvas-keyboard-response","223","171550","0.0-6.0-1.36","57","","","","","clear_screen","null","null","","","critical","d","t","c","160.6713","232.8713","164","240","240","164","trueblood","0.05","h","164","240","240","164","160.6713","232.8713","39360","39360","37415.7294","dc","null","null","null","null","null","null","[1,3]"
"","canvas-keyboard-response","224","172882","0.0-6.0-2.36","57","","","","","rectangles","null","null","","","critical","d","t","c","160.6713","232.8713","164","240","240","164","trueblood","0.05","h","164","240","240","164","160.6713","232.8713","39360","39360","37415.7294","dc","null","null","null","null","null","null","[1,3]"
"","canvas-keyboard-response","225","173041","0.0-6.0-3.36","57","","","","","clear_screen","null","null","","","critical","d","t","c","160.6713","232.8713","164","240","240","164","trueblood","0.05","h","164","240","240","164","160.6713","232.8713","39360","39360","37415.7294","dc","null","null","null","null","null","null","[1,3]"
"","canvas-keyboard-response","226","174268","0.0-6.0-4.36","57","","","","","make choice","1218","3","","","critical","d","t","c","160.6713","232.8713","164","240","240","164","trueblood","0.05","h","164","240","240","164","160.6713","232.8713","39360","39360","37415.7294","dc","null","null","null","null","null","null","[1,3]"
"","canvas-keyboard-response","227","174426","0.0-6.0-5.36","57","","","","","clear_screen","null","null","","","critical","d","t","c","160.6713","232.8713","164","240","240","164","trueblood","0.05","h","164","240","240","164","160.6713","232.8713","39360","39360","37415.7294","dc","null","null","null","null","null","null","[1,3]"
"","canvas-keyboard-response","228","174628","0.0-6.0-0.37","57","","","","","pre trial waiting period","null","null","","","catch","sh","l","sw","221","187","258","224","172","200","spektor","null","null","null","null","null","null","null","null","null","null","null","","180","200","260","200","36000","52000","[1,2]"
"","canvas-keyboard-response","229","174787","0.0-6.0-1.37","57","","","","","clear_screen","null","null","","","catch","sh","l","sw","221","187","258","224","172","200","spektor","null","null","null","null","null","null","null","null","null","null","null","","180","200","260","200","36000","52000","[1,2]"
"","canvas-keyboard-response","230","176125","0.0-6.0-2.37","57","","","","","rectangles","null","null","","","catch","sh","l","sw","221","187","258","224","172","200","spektor","null","null","null","null","null","null","null","null","null","null","null","","180","200","260","200","36000","52000","[1,2]"
"","canvas-keyboard-response","231","176289","0.0-6.0-3.37","57","","","","","clear_screen","null","null","","","catch","sh","l","sw","221","187","258","224","172","200","spektor","null","null","null","null","null","null","null","null","null","null","null","","180","200","260","200","36000","52000","[1,2]"
"","canvas-keyboard-response","232","176755","0.0-6.0-4.37","57","","","","","make choice","453","2","","","catch","sh","l","sw","221","187","258","224","172","200","spektor","null","null","null","null","null","null","null","null","null","null","null","","180","200","260","200","36000","52000","[1,2]"
"","canvas-keyboard-response","233","176918","0.0-6.0-5.37","57","","","","","clear_screen","null","null","","","catch","sh","l","sw","221","187","258","224","172","200","spektor","null","null","null","null","null","null","null","null","null","null","null","","180","200","260","200","36000","52000","[1,2]"
"","canvas-keyboard-response","234","177119","0.0-6.0-0.38","57","","","","","pre trial waiting period","null","null","","","critical","c","t","d","164","240","240","164","227.1683","158.0083","trueblood","0.09","w","240","164","164","240","227.1683","158.0083","39360","39360","35894.4834","dc","null","null","null","null","null","null","[3,1]"
"","canvas-keyboard-response","235","177282","0.0-6.0-1.38","57","","","","","clear_screen","null","null","","","critical","c","t","d","164","240","240","164","227.1683","158.0083","trueblood","0.09","w","240","164","164","240","227.1683","158.0083","39360","39360","35894.4834","dc","null","null","null","null","null","null","[3,1]"
"","canvas-keyboard-response","236","178621","0.0-6.0-2.38","57","","","","","rectangles","null","null","","","critical","c","t","d","164","240","240","164","227.1683","158.0083","trueblood","0.09","w","240","164","164","240","227.1683","158.0083","39360","39360","35894.4834","dc","null","null","null","null","null","null","[3,1]"
"","canvas-keyboard-response","237","178781","0.0-6.0-3.38","57","","","","","clear_screen","null","null","","","critical","c","t","d","164","240","240","164","227.1683","158.0083","trueblood","0.09","w","240","164","164","240","227.1683","158.0083","39360","39360","35894.4834","dc","null","null","null","null","null","null","[3,1]"
"","canvas-keyboard-response","238","179292","0.0-6.0-4.38","57","","","","","make choice","498","1","","","critical","c","t","d","164","240","240","164","227.1683","158.0083","trueblood","0.09","w","240","164","164","240","227.1683","158.0083","39360","39360","35894.4834","dc","null","null","null","null","null","null","[3,1]"
"","canvas-keyboard-response","239","179451","0.0-6.0-5.38","57","","","","","clear_screen","null","null","","","critical","c","t","d","164","240","240","164","227.1683","158.0083","trueblood","0.09","w","240","164","164","240","227.1683","158.0083","39360","39360","35894.4834","dc","null","null","null","null","null","null","[3,1]"
"","canvas-keyboard-response","240","179652","0.0-6.0-0.39","57","","","","","pre trial waiting period","null","null","","","catch","sw","l","sh","180","200","175","234","215","217","trueblood","null","null","null","null","null","null","null","null","null","null","null","","180","200","260","200","36000","52000","[2,3]"
"","canvas-keyboard-response","241","179814","0.0-6.0-1.39","57","","","","","clear_screen","null","null","","","catch","sw","l","sh","180","200","175","234","215","217","trueblood","null","null","null","null","null","null","null","null","null","null","null","","180","200","260","200","36000","52000","[2,3]"
"","canvas-keyboard-response","242","181153","0.0-6.0-2.39","57","","","","","rectangles","null","null","","","catch","sw","l","sh","180","200","175","234","215","217","trueblood","null","null","null","null","null","null","null","null","null","null","null","","180","200","260","200","36000","52000","[2,3]"
"","canvas-keyboard-response","243","181314","0.0-6.0-3.39","57","","","","","clear_screen","null","null","","","catch","sw","l","sh","180","200","175","234","215","217","trueblood","null","null","null","null","null","null","null","null","null","null","null","","180","200","260","200","36000","52000","[2,3]"
"","canvas-keyboard-response","244","181899","0.0-6.0-4.39","57","","","","","make choice","575","3","","","catch","sw","l","sh","180","200","175","234","215","217","trueblood","null","null","null","null","null","null","null","null","null","null","null","","180","200","260","200","36000","52000","[2,3]"
"","canvas-keyboard-response","245","182059","0.0-6.0-5.39","57","","","","","clear_screen","null","null","","","catch","sw","l","sh","180","200","175","234","215","217","trueblood","null","null","null","null","null","null","null","null","null","null","null","","180","200","260","200","36000","52000","[2,3]"
"","canvas-keyboard-response","246","182261","0.0-6.0-0.40","57","","","","","pre trial waiting period","null","null","","","critical","t","d","c","164","240","158.0083","227.1683","240","164","trueblood","0.09","h","164","240","240","164","158.0083","227.1683","39360","39360","35894.4834","dc","null","null","null","null","null","null","[2,3]"
"","canvas-keyboard-response","247","182422","0.0-6.0-1.40","57","","","","","clear_screen","null","null","","","critical","t","d","c","164","240","158.0083","227.1683","240","164","trueblood","0.09","h","164","240","240","164","158.0083","227.1683","39360","39360","35894.4834","dc","null","null","null","null","null","null","[2,3]"
"","canvas-keyboard-response","248","183760","0.0-6.0-2.40","57","","","","","rectangles","null","null","","","critical","t","d","c","164","240","158.0083","227.1683","240","164","trueblood","0.09","h","164","240","240","164","158.0083","227.1683","39360","39360","35894.4834","dc","null","null","null","null","null","null","[2,3]"
"","canvas-keyboard-response","249","183919","0.0-6.0-3.40","57","","","","","clear_screen","null","null","","","critical","t","d","c","164","240","158.0083","227.1683","240","164","trueblood","0.09","h","164","240","240","164","158.0083","227.1683","39360","39360","35894.4834","dc","null","null","null","null","null","null","[2,3]"
"","canvas-keyboard-response","250","185372","0.0-6.0-4.40","57","","","","","make choice","1445","3","","","critical","t","d","c","164","240","158.0083","227.1683","240","164","trueblood","0.09","h","164","240","240","164","158.0083","227.1683","39360","39360","35894.4834","dc","null","null","null","null","null","null","[2,3]"
"","canvas-keyboard-response","251","185530","0.0-6.0-5.40","57","","","","","clear_screen","null","null","","","critical","t","d","c","164","240","158.0083","227.1683","240","164","trueblood","0.09","h","164","240","240","164","158.0083","227.1683","39360","39360","35894.4834","dc","null","null","null","null","null","null","[2,3]"
"","canvas-keyboard-response","252","185731","0.0-6.0-0.41","57","","","","","pre trial waiting period","null","null","","","critical","d","t","c","154.6796","220.0396","164","240","240","164","spektor","0.14","h","164","240","240","164","154.6796","220.0396","39360","39360","34035.6388","tc","null","null","null","null","null","null","[2,3]"
"","canvas-keyboard-response","253","185894","0.0-6.0-1.41","57","","","","","clear_screen","null","null","","","critical","d","t","c","154.6796","220.0396","164","240","240","164","spektor","0.14","h","164","240","240","164","154.6796","220.0396","39360","39360","34035.6388","tc","null","null","null","null","null","null","[2,3]"
"","canvas-keyboard-response","254","187229","0.0-6.0-2.41","57","","","","","rectangles","null","null","","","critical","d","t","c","154.6796","220.0396","164","240","240","164","spektor","0.14","h","164","240","240","164","154.6796","220.0396","39360","39360","34035.6388","tc","null","null","null","null","null","null","[2,3]"
"","canvas-keyboard-response","255","187392","0.0-6.0-3.41","57","","","","","clear_screen","null","null","","","critical","d","t","c","154.6796","220.0396","164","240","240","164","spektor","0.14","h","164","240","240","164","154.6796","220.0396","39360","39360","34035.6388","tc","null","null","null","null","null","null","[2,3]"
"","canvas-keyboard-response","256","188267","0.0-6.0-4.41","57","","","","","make choice","865","3","","","critical","d","t","c","154.6796","220.0396","164","240","240","164","spektor","0.14","h","164","240","240","164","154.6796","220.0396","39360","39360","34035.6388","tc","null","null","null","null","null","null","[2,3]"
"","canvas-keyboard-response","257","188425","0.0-6.0-5.41","57","","","","","clear_screen","null","null","","","critical","d","t","c","154.6796","220.0396","164","240","240","164","spektor","0.14","h","164","240","240","164","154.6796","220.0396","39360","39360","34035.6388","tc","null","null","null","null","null","null","[2,3]"
"","canvas-keyboard-response","258","188629","0.0-6.0-0.42","57","","","","","pre trial waiting period","null","null","","","critical","c","d","t","164","240","240","164","240","164","trueblood","0","w","240","164","164","240","240","164","39360","39360","39360","dc","null","null","null","null","null","null","[2,1]"
"","canvas-keyboard-response","259","188792","0.0-6.0-1.42","57","","","","","clear_screen","null","null","","","critical","c","d","t","164","240","240","164","240","164","trueblood","0","w","240","164","164","240","240","164","39360","39360","39360","dc","null","null","null","null","null","null","[2,1]"
"","canvas-keyboard-response","260","190126","0.0-6.0-2.42","57","","","","","rectangles","null","null","","","critical","c","d","t","164","240","240","164","240","164","trueblood","0","w","240","164","164","240","240","164","39360","39360","39360","dc","null","null","null","null","null","null","[2,1]"
"","canvas-keyboard-response","261","190285","0.0-6.0-3.42","57","","","","","clear_screen","null","null","","","critical","c","d","t","164","240","240","164","240","164","trueblood","0","w","240","164","164","240","240","164","39360","39360","39360","dc","null","null","null","null","null","null","[2,1]"
"","canvas-keyboard-response","262","190827","0.0-6.0-4.42","57","","","","","make choice","534","1","","","critical","c","d","t","164","240","240","164","240","164","trueblood","0","w","240","164","164","240","240","164","39360","39360","39360","dc","null","null","null","null","null","null","[2,1]"
"","canvas-keyboard-response","263","190989","0.0-6.0-5.42","57","","","","","clear_screen","null","null","","","critical","c","d","t","164","240","240","164","240","164","trueblood","0","w","240","164","164","240","240","164","39360","39360","39360","dc","null","null","null","null","null","null","[2,1]"
"","canvas-keyboard-response","264","191191","0.0-6.0-0.43","57","","","","","pre trial waiting period","null","null","","","critical","t","c","d","164","240","240","164","154.6796","220.0396","trueblood","0.14","h","164","240","240","164","154.6796","220.0396","39360","39360","34035.6388","td","null","null","null","null","null","null","[1,3]"
"","canvas-keyboard-response","265","191353","0.0-6.0-1.43","57","","","","","clear_screen","null","null","","","critical","t","c","d","164","240","240","164","154.6796","220.0396","trueblood","0.14","h","164","240","240","164","154.6796","220.0396","39360","39360","34035.6388","td","null","null","null","null","null","null","[1,3]"
"","canvas-keyboard-response","266","192693","0.0-6.0-2.43","57","","","","","rectangles","null","null","","","critical","t","c","d","164","240","240","164","154.6796","220.0396","trueblood","0.14","h","164","240","240","164","154.6796","220.0396","39360","39360","34035.6388","td","null","null","null","null","null","null","[1,3]"
"","canvas-keyboard-response","267","192848","0.0-6.0-3.43","57","","","","","clear_screen","null","null","","","critical","t","c","d","164","240","240","164","154.6796","220.0396","trueblood","0.14","h","164","240","240","164","154.6796","220.0396","39360","39360","34035.6388","td","null","null","null","null","null","null","[1,3]"
"","canvas-keyboard-response","268","193340","0.0-6.0-4.43","57","","","","","make choice","481","1","","","critical","t","c","d","164","240","240","164","154.6796","220.0396","trueblood","0.14","h","164","240","240","164","154.6796","220.0396","39360","39360","34035.6388","td","null","null","null","null","null","null","[1,3]"
"","canvas-keyboard-response","269","193497","0.0-6.0-5.43","57","","","","","clear_screen","null","null","","","critical","t","c","d","164","240","240","164","154.6796","220.0396","trueblood","0.14","h","164","240","240","164","154.6796","220.0396","39360","39360","34035.6388","td","null","null","null","null","null","null","[1,3]"
"","canvas-keyboard-response","270","193699","0.0-6.0-0.44","57","","","","","pre trial waiting period","null","null","","","catch","sh","sw","l","193","156","209","175","216","254","spektor","null","null","null","null","null","null","null","null","null","null","null","","180","200","260","200","36000","52000","[2,3]"
"","canvas-keyboard-response","271","193856","0.0-6.0-1.44","57","","","","","clear_screen","null","null","","","catch","sh","sw","l","193","156","209","175","216","254","spektor","null","null","null","null","null","null","null","null","null","null","null","","180","200","260","200","36000","52000","[2,3]"
"","canvas-keyboard-response","272","195191","0.0-6.0-2.44","57","","","","","rectangles","null","null","","","catch","sh","sw","l","193","156","209","175","216","254","spektor","null","null","null","null","null","null","null","null","null","null","null","","180","200","260","200","36000","52000","[2,3]"
"","canvas-keyboard-response","273","195352","0.0-6.0-3.44","57","","","","","clear_screen","null","null","","","catch","sh","sw","l","193","156","209","175","216","254","spektor","null","null","null","null","null","null","null","null","null","null","null","","180","200","260","200","36000","52000","[2,3]"
"","canvas-keyboard-response","274","195682","0.0-6.0-4.44","57","","","","","make choice","321","3","","","catch","sh","sw","l","193","156","209","175","216","254","spektor","null","null","null","null","null","null","null","null","null","null","null","","180","200","260","200","36000","52000","[2,3]"
"","canvas-keyboard-response","275","195836","0.0-6.0-5.44","57","","","","","clear_screen","null","null","","","catch","sh","sw","l","193","156","209","175","216","254","spektor","null","null","null","null","null","null","null","null","null","null","null","","180","200","260","200","36000","52000","[2,3]"
"","canvas-keyboard-response","276","196037","0.0-6.0-0.45","57","","","","","pre trial waiting period","null","null","","","critical","t","c","d","240","164","164","240","237.1485","162.6685","spektor","0.02","w","240","164","164","240","237.1485","162.6685","39360","39360","38576.5967","tc","null","null","null","null","null","null","[1,2]"
"","canvas-keyboard-response","277","196200","0.0-6.0-1.45","57","","","","","clear_screen","null","null","","","critical","t","c","d","240","164","164","240","237.1485","162.6685","spektor","0.02","w","240","164","164","240","237.1485","162.6685","39360","39360","38576.5967","tc","null","null","null","null","null","null","[1,2]"
"","canvas-keyboard-response","278","197534","0.0-6.0-2.45","57","","","","","rectangles","null","null","","","critical","t","c","d","240","164","164","240","237.1485","162.6685","spektor","0.02","w","240","164","164","240","237.1485","162.6685","39360","39360","38576.5967","tc","null","null","null","null","null","null","[1,2]"
"","canvas-keyboard-response","279","197696","0.0-6.0-3.45","57","","","","","clear_screen","null","null","","","critical","t","c","d","240","164","164","240","237.1485","162.6685","spektor","0.02","w","240","164","164","240","237.1485","162.6685","39360","39360","38576.5967","tc","null","null","null","null","null","null","[1,2]"
"","canvas-keyboard-response","280","198331","0.0-6.0-4.45","57","","","","","make choice","630","2","","","critical","t","c","d","240","164","164","240","237.1485","162.6685","spektor","0.02","w","240","164","164","240","237.1485","162.6685","39360","39360","38576.5967","tc","null","null","null","null","null","null","[1,2]"
"","canvas-keyboard-response","281","198490","0.0-6.0-5.45","57","","","","","clear_screen","null","null","","","critical","t","c","d","240","164","164","240","237.1485","162.6685","spektor","0.02","w","240","164","164","240","237.1485","162.6685","39360","39360","38576.5967","tc","null","null","null","null","null","null","[1,2]"
"","canvas-keyboard-response","282","198691","0.0-6.0-0.46","57","","","","","pre trial waiting period","null","null","","","critical","t","c","d","164","240","240","164","158.0083","227.1683","spektor","0.09","h","164","240","240","164","158.0083","227.1683","39360","39360","35894.4834","dc","null","null","null","null","null","null","[3,2]"
"","canvas-keyboard-response","283","198854","0.0-6.0-1.46","57","","","","","clear_screen","null","null","","","critical","t","c","d","164","240","240","164","158.0083","227.1683","spektor","0.09","h","164","240","240","164","158.0083","227.1683","39360","39360","35894.4834","dc","null","null","null","null","null","null","[3,2]"
"","canvas-keyboard-response","284","200193","0.0-6.0-2.46","57","","","","","rectangles","null","null","","","critical","t","c","d","164","240","240","164","158.0083","227.1683","spektor","0.09","h","164","240","240","164","158.0083","227.1683","39360","39360","35894.4834","dc","null","null","null","null","null","null","[3,2]"
"","canvas-keyboard-response","285","200355","0.0-6.0-3.46","57","","","","","clear_screen","null","null","","","critical","t","c","d","164","240","240","164","158.0083","227.1683","spektor","0.09","h","164","240","240","164","158.0083","227.1683","39360","39360","35894.4834","dc","null","null","null","null","null","null","[3,2]"
"","canvas-keyboard-response","286","201531","0.0-6.0-4.46","57","","","","","make choice","1165","3","","","critical","t","c","d","164","240","240","164","158.0083","227.1683","spektor","0.09","h","164","240","240","164","158.0083","227.1683","39360","39360","35894.4834","dc","null","null","null","null","null","null","[3,2]"
"","canvas-keyboard-response","287","201691","0.0-6.0-5.46","57","","","","","clear_screen","null","null","","","critical","t","c","d","164","240","240","164","158.0083","227.1683","spektor","0.09","h","164","240","240","164","158.0083","227.1683","39360","39360","35894.4834","dc","null","null","null","null","null","null","[3,2]"
"","canvas-keyboard-response","288","201892","0.0-6.0-0.47","57","","","","","pre trial waiting period","null","null","","","critical","c","d","t","240","164","162.6685","237.1485","164","240","trueblood","0.02","h","164","240","240","164","162.6685","237.1485","39360","39360","38576.5967","td","null","null","null","null","null","null","[3,2]"
"","canvas-keyboard-response","289","202054","0.0-6.0-1.47","57","","","","","clear_screen","null","null","","","critical","c","d","t","240","164","162.6685","237.1485","164","240","trueblood","0.02","h","164","240","240","164","162.6685","237.1485","39360","39360","38576.5967","td","null","null","null","null","null","null","[3,2]"
"","canvas-keyboard-response","290","203393","0.0-6.0-2.47","57","","","","","rectangles","null","null","","","critical","c","d","t","240","164","162.6685","237.1485","164","240","trueblood","0.02","h","164","240","240","164","162.6685","237.1485","39360","39360","38576.5967","td","null","null","null","null","null","null","[3,2]"
"","canvas-keyboard-response","291","203551","0.0-6.0-3.47","57","","","","","clear_screen","null","null","","","critical","c","d","t","240","164","162.6685","237.1485","164","240","trueblood","0.02","h","164","240","240","164","162.6685","237.1485","39360","39360","38576.5967","td","null","null","null","null","null","null","[3,2]"
"","canvas-keyboard-response","292","204588","0.0-6.0-4.47","57","","","","","make choice","1028","3","","","critical","c","d","t","240","164","162.6685","237.1485","164","240","trueblood","0.02","h","164","240","240","164","162.6685","237.1485","39360","39360","38576.5967","td","null","null","null","null","null","null","[3,2]"
"","canvas-keyboard-response","293","204744","0.0-6.0-5.47","57","","","","","clear_screen","null","null","","","critical","c","d","t","240","164","162.6685","237.1485","164","240","trueblood","0.02","h","164","240","240","164","162.6685","237.1485","39360","39360","38576.5967","td","null","null","null","null","null","null","[3,2]"
"","canvas-keyboard-response","294","204946","0.0-6.0-0.48","57","","","","","pre trial waiting period","null","null","","","critical","c","d","t","164","240","232.8713","160.6713","240","164","trueblood","0.05","w","240","164","164","240","232.8713","160.6713","39360","39360","37415.7294","dc","null","null","null","null","null","null","[2,1]"
"","canvas-keyboard-response","295","205107","0.0-6.0-1.48","57","","","","","clear_screen","null","null","","","critical","c","d","t","164","240","232.8713","160.6713","240","164","trueblood","0.05","w","240","164","164","240","232.8713","160.6713","39360","39360","37415.7294","dc","null","null","null","null","null","null","[2,1]"
"","canvas-keyboard-response","296","206444","0.0-6.0-2.48","57","","","","","rectangles","null","null","","","critical","c","d","t","164","240","232.8713","160.6713","240","164","trueblood","0.05","w","240","164","164","240","232.8713","160.6713","39360","39360","37415.7294","dc","null","null","null","null","null","null","[2,1]"
"","canvas-keyboard-response","297","206607","0.0-6.0-3.48","57","","","","","clear_screen","null","null","","","critical","c","d","t","164","240","232.8713","160.6713","240","164","trueblood","0.05","w","240","164","164","240","232.8713","160.6713","39360","39360","37415.7294","dc","null","null","null","null","null","null","[2,1]"
"","canvas-keyboard-response","298","208171","0.0-6.0-4.48","57","","","","","make choice","1555","1","","","critical","c","d","t","164","240","232.8713","160.6713","240","164","trueblood","0.05","w","240","164","164","240","232.8713","160.6713","39360","39360","37415.7294","dc","null","null","null","null","null","null","[2,1]"
"","canvas-keyboard-response","299","208332","0.0-6.0-5.48","57","","","","","clear_screen","null","null","","","critical","c","d","t","164","240","232.8713","160.6713","240","164","trueblood","0.05","w","240","164","164","240","232.8713","160.6713","39360","39360","37415.7294","dc","null","null","null","null","null","null","[2,1]"
"","canvas-keyboard-response","300","208535","0.0-6.0-0.49","57","","","","","pre trial waiting period","null","null","","","critical","d","c","t","232.8713","160.6713","164","240","240","164","trueblood","0.05","w","240","164","164","240","232.8713","160.6713","39360","39360","37415.7294","td","null","null","null","null","null","null","[3,1]"
"","canvas-keyboard-response","301","208698","0.0-6.0-1.49","57","","","","","clear_screen","null","null","","","critical","d","c","t","232.8713","160.6713","164","240","240","164","trueblood","0.05","w","240","164","164","240","232.8713","160.6713","39360","39360","37415.7294","td","null","null","null","null","null","null","[3,1]"
"","canvas-keyboard-response","302","210035","0.0-6.0-2.49","57","","","","","rectangles","null","null","","","critical","d","c","t","232.8713","160.6713","164","240","240","164","trueblood","0.05","w","240","164","164","240","232.8713","160.6713","39360","39360","37415.7294","td","null","null","null","null","null","null","[3,1]"
"","canvas-keyboard-response","303","210193","0.0-6.0-3.49","57","","","","","clear_screen","null","null","","","critical","d","c","t","232.8713","160.6713","164","240","240","164","trueblood","0.05","w","240","164","164","240","232.8713","160.6713","39360","39360","37415.7294","td","null","null","null","null","null","null","[3,1]"
"","canvas-keyboard-response","304","211436","0.0-6.0-4.49","57","","","","","make choice","1229","3","","","critical","d","c","t","232.8713","160.6713","164","240","240","164","trueblood","0.05","w","240","164","164","240","232.8713","160.6713","39360","39360","37415.7294","td","null","null","null","null","null","null","[3,1]"
"","canvas-keyboard-response","305","211594","0.0-6.0-5.49","57","","","","","clear_screen","null","null","","","critical","d","c","t","232.8713","160.6713","164","240","240","164","trueblood","0.05","w","240","164","164","240","232.8713","160.6713","39360","39360","37415.7294","td","null","null","null","null","null","null","[3,1]"
"","canvas-keyboard-response","306","211797","0.0-6.0-0.50","57","","","","","pre trial waiting period","null","null","","","critical","d","t","c","164","240","164","240","240","164","trueblood","0","h","164","240","240","164","164","240","39360","39360","39360","td","null","null","null","null","null","null","[2,1]"
"","canvas-keyboard-response","307","211955","0.0-6.0-1.50","57","","","","","clear_screen","null","null","","","critical","d","t","c","164","240","164","240","240","164","trueblood","0","h","164","240","240","164","164","240","39360","39360","39360","td","null","null","null","null","null","null","[2,1]"
"","canvas-keyboard-response","308","213294","0.0-6.0-2.50","57","","","","","rectangles","null","null","","","critical","d","t","c","164","240","164","240","240","164","trueblood","0","h","164","240","240","164","164","240","39360","39360","39360","td","null","null","null","null","null","null","[2,1]"
