"success","trial_type","trial_index","time_elapsed","internal_node_id","sub_n","timeout","failed_images","failed_audio","failed_video","screen_id","rt","response","stimulus","view_history","trial","r1","r2","r3","w1","h1","w2","h2","w3","h3","display","tdd","tdo","tw","th","cw","ch","dw","dh","ta","ca","da","probe","csls","csss","clls","clss","sa","la","probe_rects"
"true","fullscreen","0","4803","0.0-0.0","38","","","","","","","","","","","","","","","","","","","","","","","","","","","","","","","","","","","","","","",""
"true","preload","1","4873","0.0-1.0","38","false","[]","[]","[]","img preload","","","","","","","","","","","","","","","","","","","","","","","","","","","","","","","","","",""
"","survey-html-form","2","25561","0.0-2.0","38","","","","","enter-sub-number","20672","{""response"":""38""}","","","","","","","","","","","","","","","","","","","","","","","","","","","","","","","",""
"","image-button-response","3","40890","0.0-3.0","38","","","","","","15226","0","consent.png","","","","","","","","","","","","","","","","","","","","","","","","","","","","","","",""
"","html-button-response","4","44530","0.0-4.0","38","","","","","intro mssg","3636","0","<div style= ""font-size:25px;"" <p> <strong> Welcome! </strong><br> <p style=""color:#8B0000; font-size:25px;""><strong> Please do NOT exit full screen until you are done with the experiment. </strong> </p><p style=""font-size:25px;color:#8B0000;""> <strong> Your data will be lost <br> if you try to go back or refresh the page after the experiment starts. Feel free to click ""previous"" during the instructions, however.</strong> </p><br><p> <strong> Thanks in advance for your contribution to our research! </strong></p>","","","","","","","","","","","","","","","","","","","","","","","","","","","","","","",""
"","instructions","5","82043","0.0-5.0","38","","","","","instructions","37508","","","[{""page_index"":0,""viewing_time"":5237},{""page_index"":1,""viewing_time"":6191},{""page_index"":2,""viewing_time"":2671},{""page_index"":3,""viewing_time"":8705},{""page_index"":4,""viewing_time"":3936},{""page_index"":3,""viewing_time"":2608},{""page_index"":4,""viewing_time"":2264},{""page_index"":5,""viewing_time"":2111},{""page_index"":6,""viewing_time"":1480},{""page_index"":7,""viewing_time"":2305}]","","","","","","","","","","","","","","","","","","","","","","","","","","","","","",""
"","canvas-keyboard-response","6","82248","0.0-6.0-0.0","38","","","","","pre trial waiting period","null","null","","","critical","d","c","t","227.1683","158.0083","164","240","240","164","trueblood","0.09","w","240","164","164","240","227.1683","158.0083","39360","39360","35894.4834","dc","null","null","null","null","null","null","[1,2]"
"","canvas-keyboard-response","7","82415","0.0-6.0-1.0","38","","","","","clear_screen","null","null","","","critical","d","c","t","227.1683","158.0083","164","240","240","164","trueblood","0.09","w","240","164","164","240","227.1683","158.0083","39360","39360","35894.4834","dc","null","null","null","null","null","null","[1,2]"
"","canvas-keyboard-response","8","83754","0.0-6.0-2.0","38","","","","","rectangles","null","null","","","critical","d","c","t","227.1683","158.0083","164","240","240","164","trueblood","0.09","w","240","164","164","240","227.1683","158.0083","39360","39360","35894.4834","dc","null","null","null","null","null","null","[1,2]"
"","canvas-keyboard-response","9","83914","0.0-6.0-3.0","38","","","","","clear_screen","null","null","","","critical","d","c","t","227.1683","158.0083","164","240","240","164","trueblood","0.09","w","240","164","164","240","227.1683","158.0083","39360","39360","35894.4834","dc","null","null","null","null","null","null","[1,2]"
"","canvas-keyboard-response","10","89919","0.0-6.0-4.0","38","","","","","make choice","5993","1","","","critical","d","c","t","227.1683","158.0083","164","240","240","164","trueblood","0.09","w","240","164","164","240","227.1683","158.0083","39360","39360","35894.4834","dc","null","null","null","null","null","null","[1,2]"
"","canvas-keyboard-response","11","90079","0.0-6.0-5.0","38","","","","","clear_screen","null","null","","","critical","d","c","t","227.1683","158.0083","164","240","240","164","trueblood","0.09","w","240","164","164","240","227.1683","158.0083","39360","39360","35894.4834","dc","null","null","null","null","null","null","[1,2]"
"","canvas-keyboard-response","12","90282","0.0-6.0-0.1","38","","","","","pre trial waiting period","null","null","","","catch","l","sh","sw","254","160","205","146","171","207","trueblood","null","null","null","null","null","null","null","null","null","null","null","","180","200","260","200","36000","52000","[1,3]"
"","canvas-keyboard-response","13","90441","0.0-6.0-1.1","38","","","","","clear_screen","null","null","","","catch","l","sh","sw","254","160","205","146","171","207","trueblood","null","null","null","null","null","null","null","null","null","null","null","","180","200","260","200","36000","52000","[1,3]"
"","canvas-keyboard-response","14","91778","0.0-6.0-2.1","38","","","","","rectangles","null","null","","","catch","l","sh","sw","254","160","205","146","171","207","trueblood","null","null","null","null","null","null","null","null","null","null","null","","180","200","260","200","36000","52000","[1,3]"
"","canvas-keyboard-response","15","91936","0.0-6.0-3.1","38","","","","","clear_screen","null","null","","","catch","l","sh","sw","254","160","205","146","171","207","trueblood","null","null","null","null","null","null","null","null","null","null","null","","180","200","260","200","36000","52000","[1,3]"
"","canvas-keyboard-response","16","93351","0.0-6.0-4.1","38","","","","","make choice","1406","1","","","catch","l","sh","sw","254","160","205","146","171","207","trueblood","null","null","null","null","null","null","null","null","null","null","null","","180","200","260","200","36000","52000","[1,3]"
"","canvas-keyboard-response","17","93510","0.0-6.0-5.1","38","","","","","clear_screen","null","null","","","catch","l","sh","sw","254","160","205","146","171","207","trueblood","null","null","null","null","null","null","null","null","null","null","null","","180","200","260","200","36000","52000","[1,3]"
"","canvas-keyboard-response","18","93711","0.0-6.0-0.2","38","","","","","pre trial waiting period","null","null","","","critical","d","c","t","160.6713","232.8713","240","164","164","240","spektor","0.05","h","164","240","240","164","160.6713","232.8713","39360","39360","37415.7294","td","null","null","null","null","null","null","[3,1]"
"","canvas-keyboard-response","19","93871","0.0-6.0-1.2","38","","","","","clear_screen","null","null","","","critical","d","c","t","160.6713","232.8713","240","164","164","240","spektor","0.05","h","164","240","240","164","160.6713","232.8713","39360","39360","37415.7294","td","null","null","null","null","null","null","[3,1]"
"","canvas-keyboard-response","20","95208","0.0-6.0-2.2","38","","","","","rectangles","null","null","","","critical","d","c","t","160.6713","232.8713","240","164","164","240","spektor","0.05","h","164","240","240","164","160.6713","232.8713","39360","39360","37415.7294","td","null","null","null","null","null","null","[3,1]"
"","canvas-keyboard-response","21","95367","0.0-6.0-3.2","38","","","","","clear_screen","null","null","","","critical","d","c","t","160.6713","232.8713","240","164","164","240","spektor","0.05","h","164","240","240","164","160.6713","232.8713","39360","39360","37415.7294","td","null","null","null","null","null","null","[3,1]"
"","canvas-keyboard-response","22","96688","0.0-6.0-4.2","38","","","","","make choice","1313","3","","","critical","d","c","t","160.6713","232.8713","240","164","164","240","spektor","0.05","h","164","240","240","164","160.6713","232.8713","39360","39360","37415.7294","td","null","null","null","null","null","null","[3,1]"
"","canvas-keyboard-response","23","96846","0.0-6.0-5.2","38","","","","","clear_screen","null","null","","","critical","d","c","t","160.6713","232.8713","240","164","164","240","spektor","0.05","h","164","240","240","164","160.6713","232.8713","39360","39360","37415.7294","td","null","null","null","null","null","null","[3,1]"
"","canvas-keyboard-response","24","97047","0.0-6.0-0.3","38","","","","","pre trial waiting period","null","null","","","catch","l","sh","sw","256","229","214","197","175","180","spektor","null","null","null","null","null","null","null","null","null","null","null","","180","200","260","200","36000","52000","[1,3]"
"","canvas-keyboard-response","25","97206","0.0-6.0-1.3","38","","","","","clear_screen","null","null","","","catch","l","sh","sw","256","229","214","197","175","180","spektor","null","null","null","null","null","null","null","null","null","null","null","","180","200","260","200","36000","52000","[1,3]"
"","canvas-keyboard-response","26","98543","0.0-6.0-2.3","38","","","","","rectangles","null","null","","","catch","l","sh","sw","256","229","214","197","175","180","spektor","null","null","null","null","null","null","null","null","null","null","null","","180","200","260","200","36000","52000","[1,3]"
"","canvas-keyboard-response","27","98702","0.0-6.0-3.3","38","","","","","clear_screen","null","null","","","catch","l","sh","sw","256","229","214","197","175","180","spektor","null","null","null","null","null","null","null","null","null","null","null","","180","200","260","200","36000","52000","[1,3]"
"","canvas-keyboard-response","28","99024","0.0-6.0-4.3","38","","","","","make choice","311","1","","","catch","l","sh","sw","256","229","214","197","175","180","spektor","null","null","null","null","null","null","null","null","null","null","null","","180","200","260","200","36000","52000","[1,3]"
"","canvas-keyboard-response","29","99182","0.0-6.0-5.3","38","","","","","clear_screen","null","null","","","catch","l","sh","sw","256","229","214","197","175","180","spektor","null","null","null","null","null","null","null","null","null","null","null","","180","200","260","200","36000","52000","[1,3]"
"","canvas-keyboard-response","30","99383","0.0-6.0-0.4","38","","","","","pre trial waiting period","null","null","","","critical","c","d","t","164","240","237.1485","162.6685","240","164","spektor","0.02","w","240","164","164","240","237.1485","162.6685","39360","39360","38576.5967","tc","null","null","null","null","null","null","[3,1]"
"","canvas-keyboard-response","31","99543","0.0-6.0-1.4","38","","","","","clear_screen","null","null","","","critical","c","d","t","164","240","237.1485","162.6685","240","164","spektor","0.02","w","240","164","164","240","237.1485","162.6685","39360","39360","38576.5967","tc","null","null","null","null","null","null","[3,1]"
"","canvas-keyboard-response","32","100879","0.0-6.0-2.4","38","","","","","rectangles","null","null","","","critical","c","d","t","164","240","237.1485","162.6685","240","164","spektor","0.02","w","240","164","164","240","237.1485","162.6685","39360","39360","38576.5967","tc","null","null","null","null","null","null","[3,1]"
"","canvas-keyboard-response","33","101038","0.0-6.0-3.4","38","","","","","clear_screen","null","null","","","critical","c","d","t","164","240","237.1485","162.6685","240","164","spektor","0.02","w","240","164","164","240","237.1485","162.6685","39360","39360","38576.5967","tc","null","null","null","null","null","null","[3,1]"
"","canvas-keyboard-response","34","101559","0.0-6.0-4.4","38","","","","","make choice","513","3","","","critical","c","d","t","164","240","237.1485","162.6685","240","164","spektor","0.02","w","240","164","164","240","237.1485","162.6685","39360","39360","38576.5967","tc","null","null","null","null","null","null","[3,1]"
"","canvas-keyboard-response","35","101717","0.0-6.0-5.4","38","","","","","clear_screen","null","null","","","critical","c","d","t","164","240","237.1485","162.6685","240","164","spektor","0.02","w","240","164","164","240","237.1485","162.6685","39360","39360","38576.5967","tc","null","null","null","null","null","null","[3,1]"
"","canvas-keyboard-response","36","101920","0.0-6.0-0.5","38","","","","","pre trial waiting period","null","null","","","critical","c","d","t","240","164","164","240","164","240","spektor","0","h","164","240","240","164","164","240","39360","39360","39360","tc","null","null","null","null","null","null","[3,1]"
"","canvas-keyboard-response","37","102078","0.0-6.0-1.5","38","","","","","clear_screen","null","null","","","critical","c","d","t","240","164","164","240","164","240","spektor","0","h","164","240","240","164","164","240","39360","39360","39360","tc","null","null","null","null","null","null","[3,1]"
"","canvas-keyboard-response","38","103414","0.0-6.0-2.5","38","","","","","rectangles","null","null","","","critical","c","d","t","240","164","164","240","164","240","spektor","0","h","164","240","240","164","164","240","39360","39360","39360","tc","null","null","null","null","null","null","[3,1]"
"","canvas-keyboard-response","39","103572","0.0-6.0-3.5","38","","","","","clear_screen","null","null","","","critical","c","d","t","240","164","164","240","164","240","spektor","0","h","164","240","240","164","164","240","39360","39360","39360","tc","null","null","null","null","null","null","[3,1]"
"","canvas-keyboard-response","40","104591","0.0-6.0-4.5","38","","","","","make choice","1011","3","","","critical","c","d","t","240","164","164","240","164","240","spektor","0","h","164","240","240","164","164","240","39360","39360","39360","tc","null","null","null","null","null","null","[3,1]"
"","canvas-keyboard-response","41","104749","0.0-6.0-5.5","38","","","","","clear_screen","null","null","","","critical","c","d","t","240","164","164","240","164","240","spektor","0","h","164","240","240","164","164","240","39360","39360","39360","tc","null","null","null","null","null","null","[3,1]"
"","canvas-keyboard-response","42","104951","0.0-6.0-0.6","38","","","","","pre trial waiting period","null","null","","","critical","c","t","d","164","240","240","164","237.1485","162.6685","spektor","0.02","w","240","164","164","240","237.1485","162.6685","39360","39360","38576.5967","td","null","null","null","null","null","null","[2,3]"
"","canvas-keyboard-response","43","105110","0.0-6.0-1.6","38","","","","","clear_screen","null","null","","","critical","c","t","d","164","240","240","164","237.1485","162.6685","spektor","0.02","w","240","164","164","240","237.1485","162.6685","39360","39360","38576.5967","td","null","null","null","null","null","null","[2,3]"
"","canvas-keyboard-response","44","106446","0.0-6.0-2.6","38","","","","","rectangles","null","null","","","critical","c","t","d","164","240","240","164","237.1485","162.6685","spektor","0.02","w","240","164","164","240","237.1485","162.6685","39360","39360","38576.5967","td","null","null","null","null","null","null","[2,3]"
"","canvas-keyboard-response","45","106608","0.0-6.0-3.6","38","","","","","clear_screen","null","null","","","critical","c","t","d","164","240","240","164","237.1485","162.6685","spektor","0.02","w","240","164","164","240","237.1485","162.6685","39360","39360","38576.5967","td","null","null","null","null","null","null","[2,3]"
"","canvas-keyboard-response","46","107872","0.0-6.0-4.6","38","","","","","make choice","1253","3","","","critical","c","t","d","164","240","240","164","237.1485","162.6685","spektor","0.02","w","240","164","164","240","237.1485","162.6685","39360","39360","38576.5967","td","null","null","null","null","null","null","[2,3]"
"","canvas-keyboard-response","47","108031","0.0-6.0-5.6","38","","","","","clear_screen","null","null","","","critical","c","t","d","164","240","240","164","237.1485","162.6685","spektor","0.02","w","240","164","164","240","237.1485","162.6685","39360","39360","38576.5967","td","null","null","null","null","null","null","[2,3]"
"","canvas-keyboard-response","48","108232","0.0-6.0-0.7","38","","","","","pre trial waiting period","null","null","","","critical","c","d","t","164","240","232.8713","160.6713","240","164","trueblood","0.05","w","240","164","164","240","232.8713","160.6713","39360","39360","37415.7294","tc","null","null","null","null","null","null","[3,1]"
"","canvas-keyboard-response","49","108392","0.0-6.0-1.7","38","","","","","clear_screen","null","null","","","critical","c","d","t","164","240","232.8713","160.6713","240","164","trueblood","0.05","w","240","164","164","240","232.8713","160.6713","39360","39360","37415.7294","tc","null","null","null","null","null","null","[3,1]"
"","canvas-keyboard-response","50","109729","0.0-6.0-2.7","38","","","","","rectangles","null","null","","","critical","c","d","t","164","240","232.8713","160.6713","240","164","trueblood","0.05","w","240","164","164","240","232.8713","160.6713","39360","39360","37415.7294","tc","null","null","null","null","null","null","[3,1]"
"","canvas-keyboard-response","51","109888","0.0-6.0-3.7","38","","","","","clear_screen","null","null","","","critical","c","d","t","164","240","232.8713","160.6713","240","164","trueblood","0.05","w","240","164","164","240","232.8713","160.6713","39360","39360","37415.7294","tc","null","null","null","null","null","null","[3,1]"
"","canvas-keyboard-response","52","110456","0.0-6.0-4.7","38","","","","","make choice","559","3","","","critical","c","d","t","164","240","232.8713","160.6713","240","164","trueblood","0.05","w","240","164","164","240","232.8713","160.6713","39360","39360","37415.7294","tc","null","null","null","null","null","null","[3,1]"
"","canvas-keyboard-response","53","110614","0.0-6.0-5.7","38","","","","","clear_screen","null","null","","","critical","c","d","t","164","240","232.8713","160.6713","240","164","trueblood","0.05","w","240","164","164","240","232.8713","160.6713","39360","39360","37415.7294","tc","null","null","null","null","null","null","[3,1]"
"","canvas-keyboard-response","54","110816","0.0-6.0-0.8","38","","","","","pre trial waiting period","null","null","","","critical","d","t","c","164","240","164","240","240","164","trueblood","0","h","164","240","240","164","164","240","39360","39360","39360","td","null","null","null","null","null","null","[2,1]"
"","canvas-keyboard-response","55","110976","0.0-6.0-1.8","38","","","","","clear_screen","null","null","","","critical","d","t","c","164","240","164","240","240","164","trueblood","0","h","164","240","240","164","164","240","39360","39360","39360","td","null","null","null","null","null","null","[2,1]"
"","canvas-keyboard-response","56","112312","0.0-6.0-2.8","38","","","","","rectangles","null","null","","","critical","d","t","c","164","240","164","240","240","164","trueblood","0","h","164","240","240","164","164","240","39360","39360","39360","td","null","null","null","null","null","null","[2,1]"
"","canvas-keyboard-response","57","112472","0.0-6.0-3.8","38","","","","","clear_screen","null","null","","","critical","d","t","c","164","240","164","240","240","164","trueblood","0","h","164","240","240","164","164","240","39360","39360","39360","td","null","null","null","null","null","null","[2,1]"
"","canvas-keyboard-response","58","113039","0.0-6.0-4.8","38","","","","","make choice","559","2","","","critical","d","t","c","164","240","164","240","240","164","trueblood","0","h","164","240","240","164","164","240","39360","39360","39360","td","null","null","null","null","null","null","[2,1]"
"","canvas-keyboard-response","59","113197","0.0-6.0-5.8","38","","","","","clear_screen","null","null","","","critical","d","t","c","164","240","164","240","240","164","trueblood","0","h","164","240","240","164","164","240","39360","39360","39360","td","null","null","null","null","null","null","[2,1]"
"","canvas-keyboard-response","60","113399","0.0-6.0-0.9","38","","","","","pre trial waiting period","null","null","","","catch","sh","l","sw","182","184","238","230","171","174","trueblood","null","null","null","null","null","null","null","null","null","null","null","","180","200","260","200","36000","52000","[1,2]"
"","canvas-keyboard-response","61","113558","0.0-6.0-1.9","38","","","","","clear_screen","null","null","","","catch","sh","l","sw","182","184","238","230","171","174","trueblood","null","null","null","null","null","null","null","null","null","null","null","","180","200","260","200","36000","52000","[1,2]"
"","canvas-keyboard-response","62","114894","0.0-6.0-2.9","38","","","","","rectangles","null","null","","","catch","sh","l","sw","182","184","238","230","171","174","trueblood","null","null","null","null","null","null","null","null","null","null","null","","180","200","260","200","36000","52000","[1,2]"
"","canvas-keyboard-response","63","115053","0.0-6.0-3.9","38","","","","","clear_screen","null","null","","","catch","sh","l","sw","182","184","238","230","171","174","trueblood","null","null","null","null","null","null","null","null","null","null","null","","180","200","260","200","36000","52000","[1,2]"
"","canvas-keyboard-response","64","115439","0.0-6.0-4.9","38","","","","","make choice","377","2","","","catch","sh","l","sw","182","184","238","230","171","174","trueblood","null","null","null","null","null","null","null","null","null","null","null","","180","200","260","200","36000","52000","[1,2]"
"","canvas-keyboard-response","65","115599","0.0-6.0-5.9","38","","","","","clear_screen","null","null","","","catch","sh","l","sw","182","184","238","230","171","174","trueblood","null","null","null","null","null","null","null","null","null","null","null","","180","200","260","200","36000","52000","[1,2]"
"","canvas-keyboard-response","66","115800","0.0-6.0-0.10","38","","","","","pre trial waiting period","null","null","","","critical","d","c","t","232.8713","160.6713","164","240","240","164","trueblood","0.05","w","240","164","164","240","232.8713","160.6713","39360","39360","37415.7294","dc","null","null","null","null","null","null","[1,2]"
"","canvas-keyboard-response","67","115960","0.0-6.0-1.10","38","","","","","clear_screen","null","null","","","critical","d","c","t","232.8713","160.6713","164","240","240","164","trueblood","0.05","w","240","164","164","240","232.8713","160.6713","39360","39360","37415.7294","dc","null","null","null","null","null","null","[1,2]"
"","canvas-keyboard-response","68","117297","0.0-6.0-2.10","38","","","","","rectangles","null","null","","","critical","d","c","t","232.8713","160.6713","164","240","240","164","trueblood","0.05","w","240","164","164","240","232.8713","160.6713","39360","39360","37415.7294","dc","null","null","null","null","null","null","[1,2]"
"","canvas-keyboard-response","69","117455","0.0-6.0-3.10","38","","","","","clear_screen","null","null","","","critical","d","c","t","232.8713","160.6713","164","240","240","164","trueblood","0.05","w","240","164","164","240","232.8713","160.6713","39360","39360","37415.7294","dc","null","null","null","null","null","null","[1,2]"
"","canvas-keyboard-response","70","118376","0.0-6.0-4.10","38","","","","","make choice","910","1","","","critical","d","c","t","232.8713","160.6713","164","240","240","164","trueblood","0.05","w","240","164","164","240","232.8713","160.6713","39360","39360","37415.7294","dc","null","null","null","null","null","null","[1,2]"
"","canvas-keyboard-response","71","118535","0.0-6.0-5.10","38","","","","","clear_screen","null","null","","","critical","d","c","t","232.8713","160.6713","164","240","240","164","trueblood","0.05","w","240","164","164","240","232.8713","160.6713","39360","39360","37415.7294","dc","null","null","null","null","null","null","[1,2]"
"","canvas-keyboard-response","72","118735","0.0-6.0-0.11","38","","","","","pre trial waiting period","null","null","","","catch","sh","l","sw","171","209","177","250","206","165","trueblood","null","null","null","null","null","null","null","null","null","null","null","","180","200","260","200","36000","52000","[1,2]"
"","canvas-keyboard-response","73","118895","0.0-6.0-1.11","38","","","","","clear_screen","null","null","","","catch","sh","l","sw","171","209","177","250","206","165","trueblood","null","null","null","null","null","null","null","null","null","null","null","","180","200","260","200","36000","52000","[1,2]"
"","canvas-keyboard-response","74","120229","0.0-6.0-2.11","38","","","","","rectangles","null","null","","","catch","sh","l","sw","171","209","177","250","206","165","trueblood","null","null","null","null","null","null","null","null","null","null","null","","180","200","260","200","36000","52000","[1,2]"
"","canvas-keyboard-response","75","120388","0.0-6.0-3.11","38","","","","","clear_screen","null","null","","","catch","sh","l","sw","171","209","177","250","206","165","trueblood","null","null","null","null","null","null","null","null","null","null","null","","180","200","260","200","36000","52000","[1,2]"
"","canvas-keyboard-response","76","120935","0.0-6.0-4.11","38","","","","","make choice","540","2","","","catch","sh","l","sw","171","209","177","250","206","165","trueblood","null","null","null","null","null","null","null","null","null","null","null","","180","200","260","200","36000","52000","[1,2]"
"","canvas-keyboard-response","77","121094","0.0-6.0-5.11","38","","","","","clear_screen","null","null","","","catch","sh","l","sw","171","209","177","250","206","165","trueblood","null","null","null","null","null","null","null","null","null","null","null","","180","200","260","200","36000","52000","[1,2]"
"","canvas-keyboard-response","78","121295","0.0-6.0-0.12","38","","","","","pre trial waiting period","null","null","","","catch","sw","sh","l","180","200","180","183","222","211","spektor","null","null","null","null","null","null","null","null","null","null","null","","180","200","260","200","36000","52000","[2,3]"
"","canvas-keyboard-response","79","121453","0.0-6.0-1.12","38","","","","","clear_screen","null","null","","","catch","sw","sh","l","180","200","180","183","222","211","spektor","null","null","null","null","null","null","null","null","null","null","null","","180","200","260","200","36000","52000","[2,3]"
"","canvas-keyboard-response","80","122789","0.0-6.0-2.12","38","","","","","rectangles","null","null","","","catch","sw","sh","l","180","200","180","183","222","211","spektor","null","null","null","null","null","null","null","null","null","null","null","","180","200","260","200","36000","52000","[2,3]"
"","canvas-keyboard-response","81","122948","0.0-6.0-3.12","38","","","","","clear_screen","null","null","","","catch","sw","sh","l","180","200","180","183","222","211","spektor","null","null","null","null","null","null","null","null","null","null","null","","180","200","260","200","36000","52000","[2,3]"
"","canvas-keyboard-response","82","123239","0.0-6.0-4.12","38","","","","","make choice","282","3","","","catch","sw","sh","l","180","200","180","183","222","211","spektor","null","null","null","null","null","null","null","null","null","null","null","","180","200","260","200","36000","52000","[2,3]"
"","canvas-keyboard-response","83","123397","0.0-6.0-5.12","38","","","","","clear_screen","null","null","","","catch","sw","sh","l","180","200","180","183","222","211","spektor","null","null","null","null","null","null","null","null","null","null","null","","180","200","260","200","36000","52000","[2,3]"
"","canvas-keyboard-response","84","123598","0.0-6.0-0.13","38","","","","","pre trial waiting period","null","null","","","catch","l","sw","sh","243","160","188","232","230","217","spektor","null","null","null","null","null","null","null","null","null","null","null","","180","200","260","200","36000","52000","[1,2]"
"","canvas-keyboard-response","85","123756","0.0-6.0-1.13","38","","","","","clear_screen","null","null","","","catch","l","sw","sh","243","160","188","232","230","217","spektor","null","null","null","null","null","null","null","null","null","null","null","","180","200","260","200","36000","52000","[1,2]"
"","canvas-keyboard-response","86","125093","0.0-6.0-2.13","38","","","","","rectangles","null","null","","","catch","l","sw","sh","243","160","188","232","230","217","spektor","null","null","null","null","null","null","null","null","null","null","null","","180","200","260","200","36000","52000","[1,2]"
"","canvas-keyboard-response","87","125251","0.0-6.0-3.13","38","","","","","clear_screen","null","null","","","catch","l","sw","sh","243","160","188","232","230","217","spektor","null","null","null","null","null","null","null","null","null","null","null","","180","200","260","200","36000","52000","[1,2]"
"","canvas-keyboard-response","88","126327","0.0-6.0-4.13","38","","","","","make choice","1068","2","","","catch","l","sw","sh","243","160","188","232","230","217","spektor","null","null","null","null","null","null","null","null","null","null","null","","180","200","260","200","36000","52000","[1,2]"
"","canvas-keyboard-response","89","126485","0.0-6.0-5.13","38","","","","","clear_screen","null","null","","","catch","l","sw","sh","243","160","188","232","230","217","spektor","null","null","null","null","null","null","null","null","null","null","null","","180","200","260","200","36000","52000","[1,2]"
"","canvas-keyboard-response","90","126686","0.0-6.0-0.14","38","","","","","pre trial waiting period","null","null","","","catch","sh","l","sw","186","192","235","278","175","200","trueblood","null","null","null","null","null","null","null","null","null","null","null","","180","200","260","200","36000","52000","[2,3]"
"","canvas-keyboard-response","91","126845","0.0-6.0-1.14","38","","","","","clear_screen","null","null","","","catch","sh","l","sw","186","192","235","278","175","200","trueblood","null","null","null","null","null","null","null","null","null","null","null","","180","200","260","200","36000","52000","[2,3]"
"","canvas-keyboard-response","92","128180","0.0-6.0-2.14","38","","","","","rectangles","null","null","","","catch","sh","l","sw","186","192","235","278","175","200","trueblood","null","null","null","null","null","null","null","null","null","null","null","","180","200","260","200","36000","52000","[2,3]"
"","canvas-keyboard-response","93","128338","0.0-6.0-3.14","38","","","","","clear_screen","null","null","","","catch","sh","l","sw","186","192","235","278","175","200","trueblood","null","null","null","null","null","null","null","null","null","null","null","","180","200","260","200","36000","52000","[2,3]"
"","canvas-keyboard-response","94","128927","0.0-6.0-4.14","38","","","","","make choice","581","3","","","catch","sh","l","sw","186","192","235","278","175","200","trueblood","null","null","null","null","null","null","null","null","null","null","null","","180","200","260","200","36000","52000","[2,3]"
"","canvas-keyboard-response","95","129085","0.0-6.0-5.14","38","","","","","clear_screen","null","null","","","catch","sh","l","sw","186","192","235","278","175","200","trueblood","null","null","null","null","null","null","null","null","null","null","null","","180","200","260","200","36000","52000","[2,3]"
"","canvas-keyboard-response","96","129286","0.0-6.0-0.15","38","","","","","pre trial waiting period","null","null","","","critical","d","c","t","154.6796","220.0396","240","164","164","240","spektor","0.14","h","164","240","240","164","154.6796","220.0396","39360","39360","34035.6388","td","null","null","null","null","null","null","[3,1]"
"","canvas-keyboard-response","97","129446","0.0-6.0-1.15","38","","","","","clear_screen","null","null","","","critical","d","c","t","154.6796","220.0396","240","164","164","240","spektor","0.14","h","164","240","240","164","154.6796","220.0396","39360","39360","34035.6388","td","null","null","null","null","null","null","[3,1]"
"","canvas-keyboard-response","98","130782","0.0-6.0-2.15","38","","","","","rectangles","null","null","","","critical","d","c","t","154.6796","220.0396","240","164","164","240","spektor","0.14","h","164","240","240","164","154.6796","220.0396","39360","39360","34035.6388","td","null","null","null","null","null","null","[3,1]"
"","canvas-keyboard-response","99","130941","0.0-6.0-3.15","38","","","","","clear_screen","null","null","","","critical","d","c","t","154.6796","220.0396","240","164","164","240","spektor","0.14","h","164","240","240","164","154.6796","220.0396","39360","39360","34035.6388","td","null","null","null","null","null","null","[3,1]"
"","canvas-keyboard-response","100","132487","0.0-6.0-4.15","38","","","","","make choice","1537","3","","","critical","d","c","t","154.6796","220.0396","240","164","164","240","spektor","0.14","h","164","240","240","164","154.6796","220.0396","39360","39360","34035.6388","td","null","null","null","null","null","null","[3,1]"
"","canvas-keyboard-response","101","132645","0.0-6.0-5.15","38","","","","","clear_screen","null","null","","","critical","d","c","t","154.6796","220.0396","240","164","164","240","spektor","0.14","h","164","240","240","164","154.6796","220.0396","39360","39360","34035.6388","td","null","null","null","null","null","null","[3,1]"
"","canvas-keyboard-response","102","132846","0.0-6.0-0.16","38","","","","","pre trial waiting period","null","null","","","critical","c","t","d","164","240","240","164","237.1485","162.6685","trueblood","0.02","w","240","164","164","240","237.1485","162.6685","39360","39360","38576.5967","dc","null","null","null","null","null","null","[3,1]"
"","canvas-keyboard-response","103","133005","0.0-6.0-1.16","38","","","","","clear_screen","null","null","","","critical","c","t","d","164","240","240","164","237.1485","162.6685","trueblood","0.02","w","240","164","164","240","237.1485","162.6685","39360","39360","38576.5967","dc","null","null","null","null","null","null","[3,1]"
"","canvas-keyboard-response","104","134341","0.0-6.0-2.16","38","","","","","rectangles","null","null","","","critical","c","t","d","164","240","240","164","237.1485","162.6685","trueblood","0.02","w","240","164","164","240","237.1485","162.6685","39360","39360","38576.5967","dc","null","null","null","null","null","null","[3,1]"
"","canvas-keyboard-response","105","134499","0.0-6.0-3.16","38","","","","","clear_screen","null","null","","","critical","c","t","d","164","240","240","164","237.1485","162.6685","trueblood","0.02","w","240","164","164","240","237.1485","162.6685","39360","39360","38576.5967","dc","null","null","null","null","null","null","[3,1]"
"","canvas-keyboard-response","106","135095","0.0-6.0-4.16","38","","","","","make choice","588","1","","","critical","c","t","d","164","240","240","164","237.1485","162.6685","trueblood","0.02","w","240","164","164","240","237.1485","162.6685","39360","39360","38576.5967","dc","null","null","null","null","null","null","[3,1]"
"","canvas-keyboard-response","107","135253","0.0-6.0-5.16","38","","","","","clear_screen","null","null","","","critical","c","t","d","164","240","240","164","237.1485","162.6685","trueblood","0.02","w","240","164","164","240","237.1485","162.6685","39360","39360","38576.5967","dc","null","null","null","null","null","null","[3,1]"
"","canvas-keyboard-response","108","135454","0.0-6.0-0.17","38","","","","","pre trial waiting period","null","null","","","critical","d","t","c","158.0083","227.1683","164","240","240","164","spektor","0.09","h","164","240","240","164","158.0083","227.1683","39360","39360","35894.4834","tc","null","null","null","null","null","null","[2,3]"
"","canvas-keyboard-response","109","135612","0.0-6.0-1.17","38","","","","","clear_screen","null","null","","","critical","d","t","c","158.0083","227.1683","164","240","240","164","spektor","0.09","h","164","240","240","164","158.0083","227.1683","39360","39360","35894.4834","tc","null","null","null","null","null","null","[2,3]"
"","canvas-keyboard-response","110","136952","0.0-6.0-2.17","38","","","","","rectangles","null","null","","","critical","d","t","c","158.0083","227.1683","164","240","240","164","spektor","0.09","h","164","240","240","164","158.0083","227.1683","39360","39360","35894.4834","tc","null","null","null","null","null","null","[2,3]"
"","canvas-keyboard-response","111","137111","0.0-6.0-3.17","38","","","","","clear_screen","null","null","","","critical","d","t","c","158.0083","227.1683","164","240","240","164","spektor","0.09","h","164","240","240","164","158.0083","227.1683","39360","39360","35894.4834","tc","null","null","null","null","null","null","[2,3]"
"","canvas-keyboard-response","112","137719","0.0-6.0-4.17","38","","","","","make choice","600","3","","","critical","d","t","c","158.0083","227.1683","164","240","240","164","spektor","0.09","h","164","240","240","164","158.0083","227.1683","39360","39360","35894.4834","tc","null","null","null","null","null","null","[2,3]"
"","canvas-keyboard-response","113","137877","0.0-6.0-5.17","38","","","","","clear_screen","null","null","","","critical","d","t","c","158.0083","227.1683","164","240","240","164","spektor","0.09","h","164","240","240","164","158.0083","227.1683","39360","39360","35894.4834","tc","null","null","null","null","null","null","[2,3]"
"","canvas-keyboard-response","114","138078","0.0-6.0-0.18","38","","","","","pre trial waiting period","null","null","","","critical","d","c","t","160.6713","232.8713","240","164","164","240","trueblood","0.05","h","164","240","240","164","160.6713","232.8713","39360","39360","37415.7294","tc","null","null","null","null","null","null","[3,2]"
"","canvas-keyboard-response","115","138237","0.0-6.0-1.18","38","","","","","clear_screen","null","null","","","critical","d","c","t","160.6713","232.8713","240","164","164","240","trueblood","0.05","h","164","240","240","164","160.6713","232.8713","39360","39360","37415.7294","tc","null","null","null","null","null","null","[3,2]"
"","canvas-keyboard-response","116","139572","0.0-6.0-2.18","38","","","","","rectangles","null","null","","","critical","d","c","t","160.6713","232.8713","240","164","164","240","trueblood","0.05","h","164","240","240","164","160.6713","232.8713","39360","39360","37415.7294","tc","null","null","null","null","null","null","[3,2]"
"","canvas-keyboard-response","117","139731","0.0-6.0-3.18","38","","","","","clear_screen","null","null","","","critical","d","c","t","160.6713","232.8713","240","164","164","240","trueblood","0.05","h","164","240","240","164","160.6713","232.8713","39360","39360","37415.7294","tc","null","null","null","null","null","null","[3,2]"
"","canvas-keyboard-response","118","140895","0.0-6.0-4.18","38","","","","","make choice","1156","2","","","critical","d","c","t","160.6713","232.8713","240","164","164","240","trueblood","0.05","h","164","240","240","164","160.6713","232.8713","39360","39360","37415.7294","tc","null","null","null","null","null","null","[3,2]"
"","canvas-keyboard-response","119","141053","0.0-6.0-5.18","38","","","","","clear_screen","null","null","","","critical","d","c","t","160.6713","232.8713","240","164","164","240","trueblood","0.05","h","164","240","240","164","160.6713","232.8713","39360","39360","37415.7294","tc","null","null","null","null","null","null","[3,2]"
"","canvas-keyboard-response","120","141254","0.0-6.0-0.19","38","","","","","pre trial waiting period","null","null","","","critical","t","d","c","164","240","164","240","240","164","spektor","0","h","164","240","240","164","164","240","39360","39360","39360","dc","null","null","null","null","null","null","[2,3]"
"","canvas-keyboard-response","121","141413","0.0-6.0-1.19","38","","","","","clear_screen","null","null","","","critical","t","d","c","164","240","164","240","240","164","spektor","0","h","164","240","240","164","164","240","39360","39360","39360","dc","null","null","null","null","null","null","[2,3]"
"","canvas-keyboard-response","122","142749","0.0-6.0-2.19","38","","","","","rectangles","null","null","","","critical","t","d","c","164","240","164","240","240","164","spektor","0","h","164","240","240","164","164","240","39360","39360","39360","dc","null","null","null","null","null","null","[2,3]"
"","canvas-keyboard-response","123","142907","0.0-6.0-3.19","38","","","","","clear_screen","null","null","","","critical","t","d","c","164","240","164","240","240","164","spektor","0","h","164","240","240","164","164","240","39360","39360","39360","dc","null","null","null","null","null","null","[2,3]"
"","canvas-keyboard-response","124","143463","0.0-6.0-4.19","38","","","","","make choice","549","2","","","critical","t","d","c","164","240","164","240","240","164","spektor","0","h","164","240","240","164","164","240","39360","39360","39360","dc","null","null","null","null","null","null","[2,3]"
"","canvas-keyboard-response","125","143621","0.0-6.0-5.19","38","","","","","clear_screen","null","null","","","critical","t","d","c","164","240","164","240","240","164","spektor","0","h","164","240","240","164","164","240","39360","39360","39360","dc","null","null","null","null","null","null","[2,3]"
"","canvas-keyboard-response","126","143821","0.0-6.0-0.20","38","","","","","pre trial waiting period","null","null","","","catch","sw","l","sh","180","200","175","280","192","157","spektor","null","null","null","null","null","null","null","null","null","null","null","","180","200","260","200","36000","52000","[1,2]"
"","canvas-keyboard-response","127","143981","0.0-6.0-1.20","38","","","","","clear_screen","null","null","","","catch","sw","l","sh","180","200","175","280","192","157","spektor","null","null","null","null","null","null","null","null","null","null","null","","180","200","260","200","36000","52000","[1,2]"
"","canvas-keyboard-response","128","145317","0.0-6.0-2.20","38","","","","","rectangles","null","null","","","catch","sw","l","sh","180","200","175","280","192","157","spektor","null","null","null","null","null","null","null","null","null","null","null","","180","200","260","200","36000","52000","[1,2]"
"","canvas-keyboard-response","129","145476","0.0-6.0-3.20","38","","","","","clear_screen","null","null","","","catch","sw","l","sh","180","200","175","280","192","157","spektor","null","null","null","null","null","null","null","null","null","null","null","","180","200","260","200","36000","52000","[1,2]"
"","canvas-keyboard-response","130","145983","0.0-6.0-4.20","38","","","","","make choice","500","1","","","catch","sw","l","sh","180","200","175","280","192","157","spektor","null","null","null","null","null","null","null","null","null","null","null","","180","200","260","200","36000","52000","[1,2]"
"","canvas-keyboard-response","131","146141","0.0-6.0-5.20","38","","","","","clear_screen","null","null","","","catch","sw","l","sh","180","200","175","280","192","157","spektor","null","null","null","null","null","null","null","null","null","null","null","","180","200","260","200","36000","52000","[1,2]"
"","canvas-keyboard-response","132","146342","0.0-6.0-0.21","38","","","","","pre trial waiting period","null","null","","","critical","d","c","t","154.6796","220.0396","240","164","164","240","trueblood","0.14","h","164","240","240","164","154.6796","220.0396","39360","39360","34035.6388","td","null","null","null","null","null","null","[3,1]"
"","canvas-keyboard-response","133","146501","0.0-6.0-1.21","38","","","","","clear_screen","null","null","","","critical","d","c","t","154.6796","220.0396","240","164","164","240","trueblood","0.14","h","164","240","240","164","154.6796","220.0396","39360","39360","34035.6388","td","null","null","null","null","null","null","[3,1]"
"","canvas-keyboard-response","134","147840","0.0-6.0-2.21","38","","","","","rectangles","null","null","","","critical","d","c","t","154.6796","220.0396","240","164","164","240","trueblood","0.14","h","164","240","240","164","154.6796","220.0396","39360","39360","34035.6388","td","null","null","null","null","null","null","[3,1]"
"","canvas-keyboard-response","135","147998","0.0-6.0-3.21","38","","","","","clear_screen","null","null","","","critical","d","c","t","154.6796","220.0396","240","164","164","240","trueblood","0.14","h","164","240","240","164","154.6796","220.0396","39360","39360","34035.6388","td","null","null","null","null","null","null","[3,1]"
"","canvas-keyboard-response","136","149615","0.0-6.0-4.21","38","","","","","make choice","1608","1","","","critical","d","c","t","154.6796","220.0396","240","164","164","240","trueblood","0.14","h","164","240","240","164","154.6796","220.0396","39360","39360","34035.6388","td","null","null","null","null","null","null","[3,1]"
"","canvas-keyboard-response","137","149773","0.0-6.0-5.21","38","","","","","clear_screen","null","null","","","critical","d","c","t","154.6796","220.0396","240","164","164","240","trueblood","0.14","h","164","240","240","164","154.6796","220.0396","39360","39360","34035.6388","td","null","null","null","null","null","null","[3,1]"
"","canvas-keyboard-response","138","149974","0.0-6.0-0.22","38","","","","","pre trial waiting period","null","null","","","catch","l","sh","sw","202","272","236","189","167","200","spektor","null","null","null","null","null","null","null","null","null","null","null","","180","200","260","200","36000","52000","[1,2]"
"","canvas-keyboard-response","139","150133","0.0-6.0-1.22","38","","","","","clear_screen","null","null","","","catch","l","sh","sw","202","272","236","189","167","200","spektor","null","null","null","null","null","null","null","null","null","null","null","","180","200","260","200","36000","52000","[1,2]"
"","canvas-keyboard-response","140","151468","0.0-6.0-2.22","38","","","","","rectangles","null","null","","","catch","l","sh","sw","202","272","236","189","167","200","spektor","null","null","null","null","null","null","null","null","null","null","null","","180","200","260","200","36000","52000","[1,2]"
"","canvas-keyboard-response","141","151626","0.0-6.0-3.22","38","","","","","clear_screen","null","null","","","catch","l","sh","sw","202","272","236","189","167","200","spektor","null","null","null","null","null","null","null","null","null","null","null","","180","200","260","200","36000","52000","[1,2]"
"","canvas-keyboard-response","142","152247","0.0-6.0-4.22","38","","","","","make choice","613","1","","","catch","l","sh","sw","202","272","236","189","167","200","spektor","null","null","null","null","null","null","null","null","null","null","null","","180","200","260","200","36000","52000","[1,2]"
"","canvas-keyboard-response","143","152405","0.0-6.0-5.22","38","","","","","clear_screen","null","null","","","catch","l","sh","sw","202","272","236","189","167","200","spektor","null","null","null","null","null","null","null","null","null","null","null","","180","200","260","200","36000","52000","[1,2]"
"","canvas-keyboard-response","144","152608","0.0-6.0-0.23","38","","","","","pre trial waiting period","null","null","","","critical","t","d","c","240","164","220.0396","154.6796","164","240","trueblood","0.14","w","240","164","164","240","220.0396","154.6796","39360","39360","34035.6388","dc","null","null","null","null","null","null","[2,3]"
"","canvas-keyboard-response","145","152766","0.0-6.0-1.23","38","","","","","clear_screen","null","null","","","critical","t","d","c","240","164","220.0396","154.6796","164","240","trueblood","0.14","w","240","164","164","240","220.0396","154.6796","39360","39360","34035.6388","dc","null","null","null","null","null","null","[2,3]"
"","canvas-keyboard-response","146","154102","0.0-6.0-2.23","38","","","","","rectangles","null","null","","","critical","t","d","c","240","164","220.0396","154.6796","164","240","trueblood","0.14","w","240","164","164","240","220.0396","154.6796","39360","39360","34035.6388","dc","null","null","null","null","null","null","[2,3]"
"","canvas-keyboard-response","147","154263","0.0-6.0-3.23","38","","","","","clear_screen","null","null","","","critical","t","d","c","240","164","220.0396","154.6796","164","240","trueblood","0.14","w","240","164","164","240","220.0396","154.6796","39360","39360","34035.6388","dc","null","null","null","null","null","null","[2,3]"
"","canvas-keyboard-response","148","155087","0.0-6.0-4.23","38","","","","","make choice","814","3","","","critical","t","d","c","240","164","220.0396","154.6796","164","240","trueblood","0.14","w","240","164","164","240","220.0396","154.6796","39360","39360","34035.6388","dc","null","null","null","null","null","null","[2,3]"
"","canvas-keyboard-response","149","155247","0.0-6.0-5.23","38","","","","","clear_screen","null","null","","","critical","t","d","c","240","164","220.0396","154.6796","164","240","trueblood","0.14","w","240","164","164","240","220.0396","154.6796","39360","39360","34035.6388","dc","null","null","null","null","null","null","[2,3]"
"","canvas-keyboard-response","150","155448","0.0-6.0-0.24","38","","","","","pre trial waiting period","null","null","","","critical","d","c","t","162.6685","237.1485","240","164","164","240","trueblood","0.02","h","164","240","240","164","162.6685","237.1485","39360","39360","38576.5967","td","null","null","null","null","null","null","[3,1]"
"","canvas-keyboard-response","151","155609","0.0-6.0-1.24","38","","","","","clear_screen","null","null","","","critical","d","c","t","162.6685","237.1485","240","164","164","240","trueblood","0.02","h","164","240","240","164","162.6685","237.1485","39360","39360","38576.5967","td","null","null","null","null","null","null","[3,1]"
"","canvas-keyboard-response","152","156945","0.0-6.0-2.24","38","","","","","rectangles","null","null","","","critical","d","c","t","162.6685","237.1485","240","164","164","240","trueblood","0.02","h","164","240","240","164","162.6685","237.1485","39360","39360","38576.5967","td","null","null","null","null","null","null","[3,1]"
"","canvas-keyboard-response","153","157104","0.0-6.0-3.24","38","","","","","clear_screen","null","null","","","critical","d","c","t","162.6685","237.1485","240","164","164","240","trueblood","0.02","h","164","240","240","164","162.6685","237.1485","39360","39360","38576.5967","td","null","null","null","null","null","null","[3,1]"
"","canvas-keyboard-response","154","157951","0.0-6.0-4.24","38","","","","","make choice","837","1","","","critical","d","c","t","162.6685","237.1485","240","164","164","240","trueblood","0.02","h","164","240","240","164","162.6685","237.1485","39360","39360","38576.5967","td","null","null","null","null","null","null","[3,1]"
"","canvas-keyboard-response","155","158110","0.0-6.0-5.24","38","","","","","clear_screen","null","null","","","critical","d","c","t","162.6685","237.1485","240","164","164","240","trueblood","0.02","h","164","240","240","164","162.6685","237.1485","39360","39360","38576.5967","td","null","null","null","null","null","null","[3,1]"
"","canvas-keyboard-response","156","158312","0.0-6.0-0.25","38","","","","","pre trial waiting period","null","null","","","critical","c","d","t","240","164","162.6685","237.1485","164","240","spektor","0.02","h","164","240","240","164","162.6685","237.1485","39360","39360","38576.5967","dc","null","null","null","null","null","null","[2,1]"
"","canvas-keyboard-response","157","158472","0.0-6.0-1.25","38","","","","","clear_screen","null","null","","","critical","c","d","t","240","164","162.6685","237.1485","164","240","spektor","0.02","h","164","240","240","164","162.6685","237.1485","39360","39360","38576.5967","dc","null","null","null","null","null","null","[2,1]"
"","canvas-keyboard-response","158","159809","0.0-6.0-2.25","38","","","","","rectangles","null","null","","","critical","c","d","t","240","164","162.6685","237.1485","164","240","spektor","0.02","h","164","240","240","164","162.6685","237.1485","39360","39360","38576.5967","dc","null","null","null","null","null","null","[2,1]"
"","canvas-keyboard-response","159","159972","0.0-6.0-3.25","38","","","","","clear_screen","null","null","","","critical","c","d","t","240","164","162.6685","237.1485","164","240","spektor","0.02","h","164","240","240","164","162.6685","237.1485","39360","39360","38576.5967","dc","null","null","null","null","null","null","[2,1]"
"","canvas-keyboard-response","160","160991","0.0-6.0-4.25","38","","","","","make choice","1010","1","","","critical","c","d","t","240","164","162.6685","237.1485","164","240","spektor","0.02","h","164","240","240","164","162.6685","237.1485","39360","39360","38576.5967","dc","null","null","null","null","null","null","[2,1]"
"","canvas-keyboard-response","161","161150","0.0-6.0-5.25","38","","","","","clear_screen","null","null","","","critical","c","d","t","240","164","162.6685","237.1485","164","240","spektor","0.02","h","164","240","240","164","162.6685","237.1485","39360","39360","38576.5967","dc","null","null","null","null","null","null","[2,1]"
"","canvas-keyboard-response","162","161351","0.0-6.0-0.26","38","","","","","pre trial waiting period","null","null","","","critical","d","c","t","227.1683","158.0083","164","240","240","164","trueblood","0.09","w","240","164","164","240","227.1683","158.0083","39360","39360","35894.4834","tc","null","null","null","null","null","null","[3,2]"
"","canvas-keyboard-response","163","161511","0.0-6.0-1.26","38","","","","","clear_screen","null","null","","","critical","d","c","t","227.1683","158.0083","164","240","240","164","trueblood","0.09","w","240","164","164","240","227.1683","158.0083","39360","39360","35894.4834","tc","null","null","null","null","null","null","[3,2]"
"","canvas-keyboard-response","164","162847","0.0-6.0-2.26","38","","","","","rectangles","null","null","","","critical","d","c","t","227.1683","158.0083","164","240","240","164","trueblood","0.09","w","240","164","164","240","227.1683","158.0083","39360","39360","35894.4834","tc","null","null","null","null","null","null","[3,2]"
"","canvas-keyboard-response","165","163006","0.0-6.0-3.26","38","","","","","clear_screen","null","null","","","critical","d","c","t","227.1683","158.0083","164","240","240","164","trueblood","0.09","w","240","164","164","240","227.1683","158.0083","39360","39360","35894.4834","tc","null","null","null","null","null","null","[3,2]"
"","canvas-keyboard-response","166","163439","0.0-6.0-4.26","38","","","","","make choice","426","3","","","critical","d","c","t","227.1683","158.0083","164","240","240","164","trueblood","0.09","w","240","164","164","240","227.1683","158.0083","39360","39360","35894.4834","tc","null","null","null","null","null","null","[3,2]"
"","canvas-keyboard-response","167","163599","0.0-6.0-5.26","38","","","","","clear_screen","null","null","","","critical","d","c","t","227.1683","158.0083","164","240","240","164","trueblood","0.09","w","240","164","164","240","227.1683","158.0083","39360","39360","35894.4834","tc","null","null","null","null","null","null","[3,2]"
"","canvas-keyboard-response","168","163799","0.0-6.0-0.27","38","","","","","pre trial waiting period","null","null","","","critical","t","d","c","164","240","158.0083","227.1683","240","164","trueblood","0.09","h","164","240","240","164","158.0083","227.1683","39360","39360","35894.4834","tc","null","null","null","null","null","null","[1,3]"
"","canvas-keyboard-response","169","163958","0.0-6.0-1.27","38","","","","","clear_screen","null","null","","","critical","t","d","c","164","240","158.0083","227.1683","240","164","trueblood","0.09","h","164","240","240","164","158.0083","227.1683","39360","39360","35894.4834","tc","null","null","null","null","null","null","[1,3]"
"","canvas-keyboard-response","170","165295","0.0-6.0-2.27","38","","","","","rectangles","null","null","","","critical","t","d","c","164","240","158.0083","227.1683","240","164","trueblood","0.09","h","164","240","240","164","158.0083","227.1683","39360","39360","35894.4834","tc","null","null","null","null","null","null","[1,3]"
"","canvas-keyboard-response","171","165453","0.0-6.0-3.27","38","","","","","clear_screen","null","null","","","critical","t","d","c","164","240","158.0083","227.1683","240","164","trueblood","0.09","h","164","240","240","164","158.0083","227.1683","39360","39360","35894.4834","tc","null","null","null","null","null","null","[1,3]"
"","canvas-keyboard-response","172","165872","0.0-6.0-4.27","38","","","","","make choice","409","1","","","critical","t","d","c","164","240","158.0083","227.1683","240","164","trueblood","0.09","h","164","240","240","164","158.0083","227.1683","39360","39360","35894.4834","tc","null","null","null","null","null","null","[1,3]"
"","canvas-keyboard-response","173","166030","0.0-6.0-5.27","38","","","","","clear_screen","null","null","","","critical","t","d","c","164","240","158.0083","227.1683","240","164","trueblood","0.09","h","164","240","240","164","158.0083","227.1683","39360","39360","35894.4834","tc","null","null","null","null","null","null","[1,3]"
"","canvas-keyboard-response","174","166230","0.0-6.0-0.28","38","","","","","pre trial waiting period","null","null","","","critical","c","d","t","240","164","162.6685","237.1485","164","240","trueblood","0.02","h","164","240","240","164","162.6685","237.1485","39360","39360","38576.5967","tc","null","null","null","null","null","null","[3,1]"
"","canvas-keyboard-response","175","166389","0.0-6.0-1.28","38","","","","","clear_screen","null","null","","","critical","c","d","t","240","164","162.6685","237.1485","164","240","trueblood","0.02","h","164","240","240","164","162.6685","237.1485","39360","39360","38576.5967","tc","null","null","null","null","null","null","[3,1]"
"","canvas-keyboard-response","176","167724","0.0-6.0-2.28","38","","","","","rectangles","null","null","","","critical","c","d","t","240","164","162.6685","237.1485","164","240","trueblood","0.02","h","164","240","240","164","162.6685","237.1485","39360","39360","38576.5967","tc","null","null","null","null","null","null","[3,1]"
"","canvas-keyboard-response","177","167883","0.0-6.0-3.28","38","","","","","clear_screen","null","null","","","critical","c","d","t","240","164","162.6685","237.1485","164","240","trueblood","0.02","h","164","240","240","164","162.6685","237.1485","39360","39360","38576.5967","tc","null","null","null","null","null","null","[3,1]"
"","canvas-keyboard-response","178","168903","0.0-6.0-4.28","38","","","","","make choice","1010","3","","","critical","c","d","t","240","164","162.6685","237.1485","164","240","trueblood","0.02","h","164","240","240","164","162.6685","237.1485","39360","39360","38576.5967","tc","null","null","null","null","null","null","[3,1]"
"","canvas-keyboard-response","179","169062","0.0-6.0-5.28","38","","","","","clear_screen","null","null","","","critical","c","d","t","240","164","162.6685","237.1485","164","240","trueblood","0.02","h","164","240","240","164","162.6685","237.1485","39360","39360","38576.5967","tc","null","null","null","null","null","null","[3,1]"
"","canvas-keyboard-response","180","169263","0.0-6.0-0.29","38","","","","","pre trial waiting period","null","null","","","catch","sh","l","sw","182","158","170","253","164","227","spektor","null","null","null","null","null","null","null","null","null","null","null","","180","200","260","200","36000","52000","[1,2]"
"","canvas-keyboard-response","181","169422","0.0-6.0-1.29","38","","","","","clear_screen","null","null","","","catch","sh","l","sw","182","158","170","253","164","227","spektor","null","null","null","null","null","null","null","null","null","null","null","","180","200","260","200","36000","52000","[1,2]"
"","canvas-keyboard-response","182","170758","0.0-6.0-2.29","38","","","","","rectangles","null","null","","","catch","sh","l","sw","182","158","170","253","164","227","spektor","null","null","null","null","null","null","null","null","null","null","null","","180","200","260","200","36000","52000","[1,2]"
"","canvas-keyboard-response","183","170920","0.0-6.0-3.29","38","","","","","clear_screen","null","null","","","catch","sh","l","sw","182","158","170","253","164","227","spektor","null","null","null","null","null","null","null","null","null","null","null","","180","200","260","200","36000","52000","[1,2]"
"","canvas-keyboard-response","184","171431","0.0-6.0-4.29","38","","","","","make choice","503","2","","","catch","sh","l","sw","182","158","170","253","164","227","spektor","null","null","null","null","null","null","null","null","null","null","null","","180","200","260","200","36000","52000","[1,2]"
"","canvas-keyboard-response","185","171590","0.0-6.0-5.29","38","","","","","clear_screen","null","null","","","catch","sh","l","sw","182","158","170","253","164","227","spektor","null","null","null","null","null","null","null","null","null","null","null","","180","200","260","200","36000","52000","[1,2]"
"","canvas-keyboard-response","186","171792","0.0-6.0-0.30","38","","","","","pre trial waiting period","null","null","","","critical","d","t","c","240","164","240","164","164","240","spektor","0","w","240","164","164","240","240","164","39360","39360","39360","td","null","null","null","null","null","null","[2,1]"
"","canvas-keyboard-response","187","171951","0.0-6.0-1.30","38","","","","","clear_screen","null","null","","","critical","d","t","c","240","164","240","164","164","240","spektor","0","w","240","164","164","240","240","164","39360","39360","39360","td","null","null","null","null","null","null","[2,1]"
"","canvas-keyboard-response","188","173287","0.0-6.0-2.30","38","","","","","rectangles","null","null","","","critical","d","t","c","240","164","240","164","164","240","spektor","0","w","240","164","164","240","240","164","39360","39360","39360","td","null","null","null","null","null","null","[2,1]"
"","canvas-keyboard-response","189","173445","0.0-6.0-3.30","38","","","","","clear_screen","null","null","","","critical","d","t","c","240","164","240","164","164","240","spektor","0","w","240","164","164","240","240","164","39360","39360","39360","td","null","null","null","null","null","null","[2,1]"
"","canvas-keyboard-response","190","174063","0.0-6.0-4.30","38","","","","","make choice","608","1","","","critical","d","t","c","240","164","240","164","164","240","spektor","0","w","240","164","164","240","240","164","39360","39360","39360","td","null","null","null","null","null","null","[2,1]"
"","canvas-keyboard-response","191","174221","0.0-6.0-5.30","38","","","","","clear_screen","null","null","","","critical","d","t","c","240","164","240","164","164","240","spektor","0","w","240","164","164","240","240","164","39360","39360","39360","td","null","null","null","null","null","null","[2,1]"
"","canvas-keyboard-response","192","174422","0.0-6.0-0.31","38","","","","","pre trial waiting period","null","null","","","catch","sh","sw","l","190","213","186","235","234","210","spektor","null","null","null","null","null","null","null","null","null","null","null","","180","200","260","200","36000","52000","[2,3]"
"","canvas-keyboard-response","193","174581","0.0-6.0-1.31","38","","","","","clear_screen","null","null","","","catch","sh","sw","l","190","213","186","235","234","210","spektor","null","null","null","null","null","null","null","null","null","null","null","","180","200","260","200","36000","52000","[2,3]"
"","canvas-keyboard-response","194","175916","0.0-6.0-2.31","38","","","","","rectangles","null","null","","","catch","sh","sw","l","190","213","186","235","234","210","spektor","null","null","null","null","null","null","null","null","null","null","null","","180","200","260","200","36000","52000","[2,3]"
"","canvas-keyboard-response","195","176074","0.0-6.0-3.31","38","","","","","clear_screen","null","null","","","catch","sh","sw","l","190","213","186","235","234","210","spektor","null","null","null","null","null","null","null","null","null","null","null","","180","200","260","200","36000","52000","[2,3]"
"","canvas-keyboard-response","196","176430","0.0-6.0-4.31","38","","","","","make choice","346","3","","","catch","sh","sw","l","190","213","186","235","234","210","spektor","null","null","null","null","null","null","null","null","null","null","null","","180","200","260","200","36000","52000","[2,3]"
"","canvas-keyboard-response","197","176588","0.0-6.0-5.31","38","","","","","clear_screen","null","null","","","catch","sh","sw","l","190","213","186","235","234","210","spektor","null","null","null","null","null","null","null","null","null","null","null","","180","200","260","200","36000","52000","[2,3]"
"","canvas-keyboard-response","198","176790","0.0-6.0-0.32","38","","","","","pre trial waiting period","null","null","","","catch","sw","l","sh","180","200","254","221","216","180","trueblood","null","null","null","null","null","null","null","null","null","null","null","","180","200","260","200","36000","52000","[1,2]"
"","canvas-keyboard-response","199","176948","0.0-6.0-1.32","38","","","","","clear_screen","null","null","","","catch","sw","l","sh","180","200","254","221","216","180","trueblood","null","null","null","null","null","null","null","null","null","null","null","","180","200","260","200","36000","52000","[1,2]"
"","canvas-keyboard-response","200","178284","0.0-6.0-2.32","38","","","","","rectangles","null","null","","","catch","sw","l","sh","180","200","254","221","216","180","trueblood","null","null","null","null","null","null","null","null","null","null","null","","180","200","260","200","36000","52000","[1,2]"
"","canvas-keyboard-response","201","178443","0.0-6.0-3.32","38","","","","","clear_screen","null","null","","","catch","sw","l","sh","180","200","254","221","216","180","trueblood","null","null","null","null","null","null","null","null","null","null","null","","180","200","260","200","36000","52000","[1,2]"
"","canvas-keyboard-response","202","178815","0.0-6.0-4.32","38","","","","","make choice","363","2","","","catch","sw","l","sh","180","200","254","221","216","180","trueblood","null","null","null","null","null","null","null","null","null","null","null","","180","200","260","200","36000","52000","[1,2]"
"","canvas-keyboard-response","203","178974","0.0-6.0-5.32","38","","","","","clear_screen","null","null","","","catch","sw","l","sh","180","200","254","221","216","180","trueblood","null","null","null","null","null","null","null","null","null","null","null","","180","200","260","200","36000","52000","[1,2]"
"","canvas-keyboard-response","204","179174","0.0-6.0-0.33","38","","","","","pre trial waiting period","null","null","","","critical","t","c","d","164","240","240","164","158.0083","227.1683","trueblood","0.09","h","164","240","240","164","158.0083","227.1683","39360","39360","35894.4834","td","null","null","null","null","null","null","[1,3]"
"","canvas-keyboard-response","205","179332","0.0-6.0-1.33","38","","","","","clear_screen","null","null","","","critical","t","c","d","164","240","240","164","158.0083","227.1683","trueblood","0.09","h","164","240","240","164","158.0083","227.1683","39360","39360","35894.4834","td","null","null","null","null","null","null","[1,3]"
"","canvas-keyboard-response","206","180668","0.0-6.0-2.33","38","","","","","rectangles","null","null","","","critical","t","c","d","164","240","240","164","158.0083","227.1683","trueblood","0.09","h","164","240","240","164","158.0083","227.1683","39360","39360","35894.4834","td","null","null","null","null","null","null","[1,3]"
"","canvas-keyboard-response","207","180826","0.0-6.0-3.33","38","","","","","clear_screen","null","null","","","critical","t","c","d","164","240","240","164","158.0083","227.1683","trueblood","0.09","h","164","240","240","164","158.0083","227.1683","39360","39360","35894.4834","td","null","null","null","null","null","null","[1,3]"
"","canvas-keyboard-response","208","181559","0.0-6.0-4.33","38","","","","","make choice","723","1","","","critical","t","c","d","164","240","240","164","158.0083","227.1683","trueblood","0.09","h","164","240","240","164","158.0083","227.1683","39360","39360","35894.4834","td","null","null","null","null","null","null","[1,3]"
"","canvas-keyboard-response","209","181717","0.0-6.0-5.33","38","","","","","clear_screen","null","null","","","critical","t","c","d","164","240","240","164","158.0083","227.1683","trueblood","0.09","h","164","240","240","164","158.0083","227.1683","39360","39360","35894.4834","td","null","null","null","null","null","null","[1,3]"
"","canvas-keyboard-response","210","181919","0.0-6.0-0.34","38","","","","","pre trial waiting period","null","null","","","critical","c","d","t","240","164","158.0083","227.1683","164","240","spektor","0.09","h","164","240","240","164","158.0083","227.1683","39360","39360","35894.4834","dc","null","null","null","null","null","null","[2,1]"
"","canvas-keyboard-response","211","182080","0.0-6.0-1.34","38","","","","","clear_screen","null","null","","","critical","c","d","t","240","164","158.0083","227.1683","164","240","spektor","0.09","h","164","240","240","164","158.0083","227.1683","39360","39360","35894.4834","dc","null","null","null","null","null","null","[2,1]"
"","canvas-keyboard-response","212","183416","0.0-6.0-2.34","38","","","","","rectangles","null","null","","","critical","c","d","t","240","164","158.0083","227.1683","164","240","spektor","0.09","h","164","240","240","164","158.0083","227.1683","39360","39360","35894.4834","dc","null","null","null","null","null","null","[2,1]"
"","canvas-keyboard-response","213","183574","0.0-6.0-3.34","38","","","","","clear_screen","null","null","","","critical","c","d","t","240","164","158.0083","227.1683","164","240","spektor","0.09","h","164","240","240","164","158.0083","227.1683","39360","39360","35894.4834","dc","null","null","null","null","null","null","[2,1]"
"","canvas-keyboard-response","214","184118","0.0-6.0-4.34","38","","","","","make choice","536","1","","","critical","c","d","t","240","164","158.0083","227.1683","164","240","spektor","0.09","h","164","240","240","164","158.0083","227.1683","39360","39360","35894.4834","dc","null","null","null","null","null","null","[2,1]"
"","canvas-keyboard-response","215","184277","0.0-6.0-5.34","38","","","","","clear_screen","null","null","","","critical","c","d","t","240","164","158.0083","227.1683","164","240","spektor","0.09","h","164","240","240","164","158.0083","227.1683","39360","39360","35894.4834","dc","null","null","null","null","null","null","[2,1]"
"","canvas-keyboard-response","216","184478","0.0-6.0-0.35","38","","","","","pre trial waiting period","null","null","","","catch","sh","l","sw","220","202","262","186","161","218","trueblood","null","null","null","null","null","null","null","null","null","null","null","","180","200","260","200","36000","52000","[1,2]"
"","canvas-keyboard-response","217","184636","0.0-6.0-1.35","38","","","","","clear_screen","null","null","","","catch","sh","l","sw","220","202","262","186","161","218","trueblood","null","null","null","null","null","null","null","null","null","null","null","","180","200","260","200","36000","52000","[1,2]"
"","canvas-keyboard-response","218","185972","0.0-6.0-2.35","38","","","","","rectangles","null","null","","","catch","sh","l","sw","220","202","262","186","161","218","trueblood","null","null","null","null","null","null","null","null","null","null","null","","180","200","260","200","36000","52000","[1,2]"
"","canvas-keyboard-response","219","186131","0.0-6.0-3.35","38","","","","","clear_screen","null","null","","","catch","sh","l","sw","220","202","262","186","161","218","trueblood","null","null","null","null","null","null","null","null","null","null","null","","180","200","260","200","36000","52000","[1,2]"
"","canvas-keyboard-response","220","187279","0.0-6.0-4.35","38","","","","","make choice","1140","2","","","catch","sh","l","sw","220","202","262","186","161","218","trueblood","null","null","null","null","null","null","null","null","null","null","null","","180","200","260","200","36000","52000","[1,2]"
"","canvas-keyboard-response","221","187437","0.0-6.0-5.35","38","","","","","clear_screen","null","null","","","catch","sh","l","sw","220","202","262","186","161","218","trueblood","null","null","null","null","null","null","null","null","null","null","null","","180","200","260","200","36000","52000","[1,2]"
"","canvas-keyboard-response","222","187638","0.0-6.0-0.36","38","","","","","pre trial waiting period","null","null","","","critical","t","c","d","240","164","164","240","237.1485","162.6685","trueblood","0.02","w","240","164","164","240","237.1485","162.6685","39360","39360","38576.5967","td","null","null","null","null","null","null","[1,3]"
"","canvas-keyboard-response","223","187800","0.0-6.0-1.36","38","","","","","clear_screen","null","null","","","critical","t","c","d","240","164","164","240","237.1485","162.6685","trueblood","0.02","w","240","164","164","240","237.1485","162.6685","39360","39360","38576.5967","td","null","null","null","null","null","null","[1,3]"
"","canvas-keyboard-response","224","189135","0.0-6.0-2.36","38","","","","","rectangles","null","null","","","critical","t","c","d","240","164","164","240","237.1485","162.6685","trueblood","0.02","w","240","164","164","240","237.1485","162.6685","39360","39360","38576.5967","td","null","null","null","null","null","null","[1,3]"
"","canvas-keyboard-response","225","189293","0.0-6.0-3.36","38","","","","","clear_screen","null","null","","","critical","t","c","d","240","164","164","240","237.1485","162.6685","trueblood","0.02","w","240","164","164","240","237.1485","162.6685","39360","39360","38576.5967","td","null","null","null","null","null","null","[1,3]"
"","canvas-keyboard-response","226","189711","0.0-6.0-4.36","38","","","","","make choice","410","1","","","critical","t","c","d","240","164","164","240","237.1485","162.6685","trueblood","0.02","w","240","164","164","240","237.1485","162.6685","39360","39360","38576.5967","td","null","null","null","null","null","null","[1,3]"
"","canvas-keyboard-response","227","189868","0.0-6.0-5.36","38","","","","","clear_screen","null","null","","","critical","t","c","d","240","164","164","240","237.1485","162.6685","trueblood","0.02","w","240","164","164","240","237.1485","162.6685","39360","39360","38576.5967","td","null","null","null","null","null","null","[1,3]"
"","canvas-keyboard-response","228","190070","0.0-6.0-0.37","38","","","","","pre trial waiting period","null","null","","","critical","c","t","d","240","164","164","240","160.6713","232.8713","trueblood","0.05","h","164","240","240","164","160.6713","232.8713","39360","39360","37415.7294","dc","null","null","null","null","null","null","[3,1]"
"","canvas-keyboard-response","229","190228","0.0-6.0-1.37","38","","","","","clear_screen","null","null","","","critical","c","t","d","240","164","164","240","160.6713","232.8713","trueblood","0.05","h","164","240","240","164","160.6713","232.8713","39360","39360","37415.7294","dc","null","null","null","null","null","null","[3,1]"
"","canvas-keyboard-response","230","191564","0.0-6.0-2.37","38","","","","","rectangles","null","null","","","critical","c","t","d","240","164","164","240","160.6713","232.8713","trueblood","0.05","h","164","240","240","164","160.6713","232.8713","39360","39360","37415.7294","dc","null","null","null","null","null","null","[3,1]"
"","canvas-keyboard-response","231","191723","0.0-6.0-3.37","38","","","","","clear_screen","null","null","","","critical","c","t","d","240","164","164","240","160.6713","232.8713","trueblood","0.05","h","164","240","240","164","160.6713","232.8713","39360","39360","37415.7294","dc","null","null","null","null","null","null","[3,1]"
"","canvas-keyboard-response","232","192110","0.0-6.0-4.37","38","","","","","make choice","376","1","","","critical","c","t","d","240","164","164","240","160.6713","232.8713","trueblood","0.05","h","164","240","240","164","160.6713","232.8713","39360","39360","37415.7294","dc","null","null","null","null","null","null","[3,1]"
"","canvas-keyboard-response","233","192270","0.0-6.0-5.37","38","","","","","clear_screen","null","null","","","critical","c","t","d","240","164","164","240","160.6713","232.8713","trueblood","0.05","h","164","240","240","164","160.6713","232.8713","39360","39360","37415.7294","dc","null","null","null","null","null","null","[3,1]"
"","canvas-keyboard-response","234","192472","0.0-6.0-0.38","38","","","","","pre trial waiting period","null","null","","","catch","l","sw","sh","213","265","166","183","197","177","spektor","null","null","null","null","null","null","null","null","null","null","null","","180","200","260","200","36000","52000","[1,3]"
"","canvas-keyboard-response","235","192632","0.0-6.0-1.38","38","","","","","clear_screen","null","null","","","catch","l","sw","sh","213","265","166","183","197","177","spektor","null","null","null","null","null","null","null","null","null","null","null","","180","200","260","200","36000","52000","[1,3]"
"","canvas-keyboard-response","236","193969","0.0-6.0-2.38","38","","","","","rectangles","null","null","","","catch","l","sw","sh","213","265","166","183","197","177","spektor","null","null","null","null","null","null","null","null","null","null","null","","180","200","260","200","36000","52000","[1,3]"
"","canvas-keyboard-response","237","194128","0.0-6.0-3.38","38","","","","","clear_screen","null","null","","","catch","l","sw","sh","213","265","166","183","197","177","spektor","null","null","null","null","null","null","null","null","null","null","null","","180","200","260","200","36000","52000","[1,3]"
"","canvas-keyboard-response","238","194583","0.0-6.0-4.38","38","","","","","make choice","446","1","","","catch","l","sw","sh","213","265","166","183","197","177","spektor","null","null","null","null","null","null","null","null","null","null","null","","180","200","260","200","36000","52000","[1,3]"
"","canvas-keyboard-response","239","194742","0.0-6.0-5.38","38","","","","","clear_screen","null","null","","","catch","l","sw","sh","213","265","166","183","197","177","spektor","null","null","null","null","null","null","null","null","null","null","null","","180","200","260","200","36000","52000","[1,3]"
"","canvas-keyboard-response","240","194943","0.0-6.0-0.39","38","","","","","pre trial waiting period","null","null","","","critical","d","c","t","240","164","164","240","240","164","spektor","0","w","240","164","164","240","240","164","39360","39360","39360","tc","null","null","null","null","null","null","[3,2]"
"","canvas-keyboard-response","241","195103","0.0-6.0-1.39","38","","","","","clear_screen","null","null","","","critical","d","c","t","240","164","164","240","240","164","spektor","0","w","240","164","164","240","240","164","39360","39360","39360","tc","null","null","null","null","null","null","[3,2]"
"","canvas-keyboard-response","242","196440","0.0-6.0-2.39","38","","","","","rectangles","null","null","","","critical","d","c","t","240","164","164","240","240","164","spektor","0","w","240","164","164","240","240","164","39360","39360","39360","tc","null","null","null","null","null","null","[3,2]"
"","canvas-keyboard-response","243","196599","0.0-6.0-3.39","38","","","","","clear_screen","null","null","","","critical","d","c","t","240","164","164","240","240","164","spektor","0","w","240","164","164","240","240","164","39360","39360","39360","tc","null","null","null","null","null","null","[3,2]"
"","canvas-keyboard-response","244","197278","0.0-6.0-4.39","38","","","","","make choice","671","3","","","critical","d","c","t","240","164","164","240","240","164","spektor","0","w","240","164","164","240","240","164","39360","39360","39360","tc","null","null","null","null","null","null","[3,2]"
"","canvas-keyboard-response","245","197437","0.0-6.0-5.39","38","","","","","clear_screen","null","null","","","critical","d","c","t","240","164","164","240","240","164","spektor","0","w","240","164","164","240","240","164","39360","39360","39360","tc","null","null","null","null","null","null","[3,2]"
"","canvas-keyboard-response","246","197639","0.0-6.0-0.40","38","","","","","pre trial waiting period","null","null","","","catch","sw","l","sh","180","200","222","279","234","205","spektor","null","null","null","null","null","null","null","null","null","null","null","","180","200","260","200","36000","52000","[2,3]"
"","canvas-keyboard-response","247","197798","0.0-6.0-1.40","38","","","","","clear_screen","null","null","","","catch","sw","l","sh","180","200","222","279","234","205","spektor","null","null","null","null","null","null","null","null","null","null","null","","180","200","260","200","36000","52000","[2,3]"
"","canvas-keyboard-response","248","199135","0.0-6.0-2.40","38","","","","","rectangles","null","null","","","catch","sw","l","sh","180","200","222","279","234","205","spektor","null","null","null","null","null","null","null","null","null","null","null","","180","200","260","200","36000","52000","[2,3]"
"","canvas-keyboard-response","249","199294","0.0-6.0-3.40","38","","","","","clear_screen","null","null","","","catch","sw","l","sh","180","200","222","279","234","205","spektor","null","null","null","null","null","null","null","null","null","null","null","","180","200","260","200","36000","52000","[2,3]"
"","canvas-keyboard-response","250","199583","0.0-6.0-4.40","38","","","","","make choice","281","2","","","catch","sw","l","sh","180","200","222","279","234","205","spektor","null","null","null","null","null","null","null","null","null","null","null","","180","200","260","200","36000","52000","[2,3]"
"","canvas-keyboard-response","251","199741","0.0-6.0-5.40","38","","","","","clear_screen","null","null","","","catch","sw","l","sh","180","200","222","279","234","205","spektor","null","null","null","null","null","null","null","null","null","null","null","","180","200","260","200","36000","52000","[2,3]"
"","canvas-keyboard-response","252","199942","0.0-6.0-0.41","38","","","","","pre trial waiting period","null","null","","","catch","l","sw","sh","265","165","204","229","217","203","trueblood","null","null","null","null","null","null","null","null","null","null","null","","180","200","260","200","36000","52000","[1,2]"
"","canvas-keyboard-response","253","200104","0.0-6.0-1.41","38","","","","","clear_screen","null","null","","","catch","l","sw","sh","265","165","204","229","217","203","trueblood","null","null","null","null","null","null","null","null","null","null","null","","180","200","260","200","36000","52000","[1,2]"
"","canvas-keyboard-response","254","201440","0.0-6.0-2.41","38","","","","","rectangles","null","null","","","catch","l","sw","sh","265","165","204","229","217","203","trueblood","null","null","null","null","null","null","null","null","null","null","null","","180","200","260","200","36000","52000","[1,2]"
"","canvas-keyboard-response","255","201599","0.0-6.0-3.41","38","","","","","clear_screen","null","null","","","catch","l","sw","sh","265","165","204","229","217","203","trueblood","null","null","null","null","null","null","null","null","null","null","null","","180","200","260","200","36000","52000","[1,2]"
"","canvas-keyboard-response","256","201950","0.0-6.0-4.41","38","","","","","make choice","343","2","","","catch","l","sw","sh","265","165","204","229","217","203","trueblood","null","null","null","null","null","null","null","null","null","null","null","","180","200","260","200","36000","52000","[1,2]"
"","canvas-keyboard-response","257","202113","0.0-6.0-5.41","38","","","","","clear_screen","null","null","","","catch","l","sw","sh","265","165","204","229","217","203","trueblood","null","null","null","null","null","null","null","null","null","null","null","","180","200","260","200","36000","52000","[1,2]"
"","canvas-keyboard-response","258","202314","0.0-6.0-0.42","38","","","","","pre trial waiting period","null","null","","","critical","t","c","d","240","164","164","240","240","164","trueblood","0","w","240","164","164","240","240","164","39360","39360","39360","tc","null","null","null","null","null","null","[1,2]"
"","canvas-keyboard-response","259","202474","0.0-6.0-1.42","38","","","","","clear_screen","null","null","","","critical","t","c","d","240","164","164","240","240","164","trueblood","0","w","240","164","164","240","240","164","39360","39360","39360","tc","null","null","null","null","null","null","[1,2]"
"","canvas-keyboard-response","260","203810","0.0-6.0-2.42","38","","","","","rectangles","null","null","","","critical","t","c","d","240","164","164","240","240","164","trueblood","0","w","240","164","164","240","240","164","39360","39360","39360","tc","null","null","null","null","null","null","[1,2]"
"","canvas-keyboard-response","261","203967","0.0-6.0-3.42","38","","","","","clear_screen","null","null","","","critical","t","c","d","240","164","164","240","240","164","trueblood","0","w","240","164","164","240","240","164","39360","39360","39360","tc","null","null","null","null","null","null","[1,2]"
"","canvas-keyboard-response","262","204159","0.0-6.0-4.42","38","","","","","make choice","182","1","","","critical","t","c","d","240","164","164","240","240","164","trueblood","0","w","240","164","164","240","240","164","39360","39360","39360","tc","null","null","null","null","null","null","[1,2]"
"","canvas-keyboard-response","263","204317","0.0-6.0-5.42","38","","","","","clear_screen","null","null","","","critical","t","c","d","240","164","164","240","240","164","trueblood","0","w","240","164","164","240","240","164","39360","39360","39360","tc","null","null","null","null","null","null","[1,2]"
"","canvas-keyboard-response","264","204517","0.0-6.0-0.43","38","","","","","pre trial waiting period","null","null","","","critical","c","t","d","164","240","240","164","220.0396","154.6796","spektor","0.14","w","240","164","164","240","220.0396","154.6796","39360","39360","34035.6388","dc","null","null","null","null","null","null","[3,1]"
"","canvas-keyboard-response","265","204677","0.0-6.0-1.43","38","","","","","clear_screen","null","null","","","critical","c","t","d","164","240","240","164","220.0396","154.6796","spektor","0.14","w","240","164","164","240","220.0396","154.6796","39360","39360","34035.6388","dc","null","null","null","null","null","null","[3,1]"
"","canvas-keyboard-response","266","206012","0.0-6.0-2.43","38","","","","","rectangles","null","null","","","critical","c","t","d","164","240","240","164","220.0396","154.6796","spektor","0.14","w","240","164","164","240","220.0396","154.6796","39360","39360","34035.6388","dc","null","null","null","null","null","null","[3,1]"
"","canvas-keyboard-response","267","206170","0.0-6.0-3.43","38","","","","","clear_screen","null","null","","","critical","c","t","d","164","240","240","164","220.0396","154.6796","spektor","0.14","w","240","164","164","240","220.0396","154.6796","39360","39360","34035.6388","dc","null","null","null","null","null","null","[3,1]"
"","canvas-keyboard-response","268","206382","0.0-6.0-4.43","38","","","","","make choice","202","1","","","critical","c","t","d","164","240","240","164","220.0396","154.6796","spektor","0.14","w","240","164","164","240","220.0396","154.6796","39360","39360","34035.6388","dc","null","null","null","null","null","null","[3,1]"
"","canvas-keyboard-response","269","206541","0.0-6.0-5.43","38","","","","","clear_screen","null","null","","","critical","c","t","d","164","240","240","164","220.0396","154.6796","spektor","0.14","w","240","164","164","240","220.0396","154.6796","39360","39360","34035.6388","dc","null","null","null","null","null","null","[3,1]"
"","canvas-keyboard-response","270","206743","0.0-6.0-0.44","38","","","","","pre trial waiting period","null","null","","","critical","t","c","d","240","164","164","240","220.0396","154.6796","spektor","0.14","w","240","164","164","240","220.0396","154.6796","39360","39360","34035.6388","td","null","null","null","null","null","null","[1,3]"
"","canvas-keyboard-response","271","206902","0.0-6.0-1.44","38","","","","","clear_screen","null","null","","","critical","t","c","d","240","164","164","240","220.0396","154.6796","spektor","0.14","w","240","164","164","240","220.0396","154.6796","39360","39360","34035.6388","td","null","null","null","null","null","null","[1,3]"
"","canvas-keyboard-response","272","208236","0.0-6.0-2.44","38","","","","","rectangles","null","null","","","critical","t","c","d","240","164","164","240","220.0396","154.6796","spektor","0.14","w","240","164","164","240","220.0396","154.6796","39360","39360","34035.6388","td","null","null","null","null","null","null","[1,3]"
"","canvas-keyboard-response","273","208395","0.0-6.0-3.44","38","","","","","clear_screen","null","null","","","critical","t","c","d","240","164","164","240","220.0396","154.6796","spektor","0.14","w","240","164","164","240","220.0396","154.6796","39360","39360","34035.6388","td","null","null","null","null","null","null","[1,3]"
"","canvas-keyboard-response","274","209015","0.0-6.0-4.44","38","","","","","make choice","611","3","","","critical","t","c","d","240","164","164","240","220.0396","154.6796","spektor","0.14","w","240","164","164","240","220.0396","154.6796","39360","39360","34035.6388","td","null","null","null","null","null","null","[1,3]"
"","canvas-keyboard-response","275","209172","0.0-6.0-5.44","38","","","","","clear_screen","null","null","","","critical","t","c","d","240","164","164","240","220.0396","154.6796","spektor","0.14","w","240","164","164","240","220.0396","154.6796","39360","39360","34035.6388","td","null","null","null","null","null","null","[1,3]"
"","canvas-keyboard-response","276","209373","0.0-6.0-0.45","38","","","","","pre trial waiting period","null","null","","","critical","t","c","d","240","164","164","240","220.0396","154.6796","trueblood","0.14","w","240","164","164","240","220.0396","154.6796","39360","39360","34035.6388","tc","null","null","null","null","null","null","[1,2]"
"","canvas-keyboard-response","277","209532","0.0-6.0-1.45","38","","","","","clear_screen","null","null","","","critical","t","c","d","240","164","164","240","220.0396","154.6796","trueblood","0.14","w","240","164","164","240","220.0396","154.6796","39360","39360","34035.6388","tc","null","null","null","null","null","null","[1,2]"
"","canvas-keyboard-response","278","210868","0.0-6.0-2.45","38","","","","","rectangles","null","null","","","critical","t","c","d","240","164","164","240","220.0396","154.6796","trueblood","0.14","w","240","164","164","240","220.0396","154.6796","39360","39360","34035.6388","tc","null","null","null","null","null","null","[1,2]"
"","canvas-keyboard-response","279","211027","0.0-6.0-3.45","38","","","","","clear_screen","null","null","","","critical","t","c","d","240","164","164","240","220.0396","154.6796","trueblood","0.14","w","240","164","164","240","220.0396","154.6796","39360","39360","34035.6388","tc","null","null","null","null","null","null","[1,2]"
"","canvas-keyboard-response","280","211382","0.0-6.0-4.45","38","","","","","make choice","347","1","","","critical","t","c","d","240","164","164","240","220.0396","154.6796","trueblood","0.14","w","240","164","164","240","220.0396","154.6796","39360","39360","34035.6388","tc","null","null","null","null","null","null","[1,2]"
"","canvas-keyboard-response","281","211541","0.0-6.0-5.45","38","","","","","clear_screen","null","null","","","critical","t","c","d","240","164","164","240","220.0396","154.6796","trueblood","0.14","w","240","164","164","240","220.0396","154.6796","39360","39360","34035.6388","tc","null","null","null","null","null","null","[1,2]"
"","canvas-keyboard-response","282","211742","0.0-6.0-0.46","38","","","","","pre trial waiting period","null","null","","","catch","sw","sh","l","180","200","166","186","201","227","trueblood","null","null","null","null","null","null","null","null","null","null","null","","180","200","260","200","36000","52000","[1,3]"
"","canvas-keyboard-response","283","211900","0.0-6.0-1.46","38","","","","","clear_screen","null","null","","","catch","sw","sh","l","180","200","166","186","201","227","trueblood","null","null","null","null","null","null","null","null","null","null","null","","180","200","260","200","36000","52000","[1,3]"
"","canvas-keyboard-response","284","213236","0.0-6.0-2.46","38","","","","","rectangles","null","null","","","catch","sw","sh","l","180","200","166","186","201","227","trueblood","null","null","null","null","null","null","null","null","null","null","null","","180","200","260","200","36000","52000","[1,3]"
"","canvas-keyboard-response","285","213394","0.0-6.0-3.46","38","","","","","clear_screen","null","null","","","catch","sw","sh","l","180","200","166","186","201","227","trueblood","null","null","null","null","null","null","null","null","null","null","null","","180","200","260","200","36000","52000","[1,3]"
"","canvas-keyboard-response","286","213471","0.0-6.0-4.46","38","","","","","make choice","67","3","","","catch","sw","sh","l","180","200","166","186","201","227","trueblood","null","null","null","null","null","null","null","null","null","null","null","","180","200","260","200","36000","52000","[1,3]"
"","canvas-keyboard-response","287","213628","0.0-6.0-5.46","38","","","","","clear_screen","null","null","","","catch","sw","sh","l","180","200","166","186","201","227","trueblood","null","null","null","null","null","null","null","null","null","null","null","","180","200","260","200","36000","52000","[1,3]"
"","canvas-keyboard-response","288","213829","0.0-6.0-0.47","38","","","","","pre trial waiting period","null","null","","","critical","c","t","d","240","164","164","240","154.6796","220.0396","trueblood","0.14","h","164","240","240","164","154.6796","220.0396","39360","39360","34035.6388","tc","null","null","null","null","null","null","[2,1]"
"","canvas-keyboard-response","289","213988","0.0-6.0-1.47","38","","","","","clear_screen","null","null","","","critical","c","t","d","240","164","164","240","154.6796","220.0396","trueblood","0.14","h","164","240","240","164","154.6796","220.0396","39360","39360","34035.6388","tc","null","null","null","null","null","null","[2,1]"
"","canvas-keyboard-response","290","215324","0.0-6.0-2.47","38","","","","","rectangles","null","null","","","critical","c","t","d","240","164","164","240","154.6796","220.0396","trueblood","0.14","h","164","240","240","164","154.6796","220.0396","39360","39360","34035.6388","tc","null","null","null","null","null","null","[2,1]"
"","canvas-keyboard-response","291","215482","0.0-6.0-3.47","38","","","","","clear_screen","null","null","","","critical","c","t","d","240","164","164","240","154.6796","220.0396","trueblood","0.14","h","164","240","240","164","154.6796","220.0396","39360","39360","34035.6388","tc","null","null","null","null","null","null","[2,1]"
"","canvas-keyboard-response","292","215783","0.0-6.0-4.47","38","","","","","make choice","291","1","","","critical","c","t","d","240","164","164","240","154.6796","220.0396","trueblood","0.14","h","164","240","240","164","154.6796","220.0396","39360","39360","34035.6388","tc","null","null","null","null","null","null","[2,1]"
"","canvas-keyboard-response","293","215941","0.0-6.0-5.47","38","","","","","clear_screen","null","null","","","critical","c","t","d","240","164","164","240","154.6796","220.0396","trueblood","0.14","h","164","240","240","164","154.6796","220.0396","39360","39360","34035.6388","tc","null","null","null","null","null","null","[2,1]"
"","canvas-keyboard-response","294","216143","0.0-6.0-0.48","38","","","","","pre trial waiting period","null","null","","","catch","sh","l","sw","216","173","201","267","158","228","spektor","null","null","null","null","null","null","null","null","null","null","null","","180","200","260","200","36000","52000","[1,2]"
"","canvas-keyboard-response","295","216302","0.0-6.0-1.48","38","","","","","clear_screen","null","null","","","catch","sh","l","sw","216","173","201","267","158","228","spektor","null","null","null","null","null","null","null","null","null","null","null","","180","200","260","200","36000","52000","[1,2]"
"","canvas-keyboard-response","296","217638","0.0-6.0-2.48","38","","","","","rectangles","null","null","","","catch","sh","l","sw","216","173","201","267","158","228","spektor","null","null","null","null","null","null","null","null","null","null","null","","180","200","260","200","36000","52000","[1,2]"
"","canvas-keyboard-response","297","217796","0.0-6.0-3.48","38","","","","","clear_screen","null","null","","","catch","sh","l","sw","216","173","201","267","158","228","spektor","null","null","null","null","null","null","null","null","null","null","null","","180","200","260","200","36000","52000","[1,2]"
"","canvas-keyboard-response","298","218031","0.0-6.0-4.48","38","","","","","make choice","226","2","","","catch","sh","l","sw","216","173","201","267","158","228","spektor","null","null","null","null","null","null","null","null","null","null","null","","180","200","260","200","36000","52000","[1,2]"
"","canvas-keyboard-response","299","218189","0.0-6.0-5.48","38","","","","","clear_screen","null","null","","","catch","sh","l","sw","216","173","201","267","158","228","spektor","null","null","null","null","null","null","null","null","null","null","null","","180","200","260","200","36000","52000","[1,2]"
"","canvas-keyboard-response","300","218390","0.0-6.0-0.49","38","","","","","pre trial waiting period","null","null","","","critical","c","d","t","164","240","232.8713","160.6713","240","164","spektor","0.05","w","240","164","164","240","232.8713","160.6713","39360","39360","37415.7294","td","null","null","null","null","null","null","[3,2]"
"","canvas-keyboard-response","301","218548","0.0-6.0-1.49","38","","","","","clear_screen","null","null","","","critical","c","d","t","164","240","232.8713","160.6713","240","164","spektor","0.05","w","240","164","164","240","232.8713","160.6713","39360","39360","37415.7294","td","null","null","null","null","null","null","[3,2]"
"","canvas-keyboard-response","302","219885","0.0-6.0-2.49","38","","","","","rectangles","null","null","","","critical","c","d","t","164","240","232.8713","160.6713","240","164","spektor","0.05","w","240","164","164","240","232.8713","160.6713","39360","39360","37415.7294","td","null","null","null","null","null","null","[3,2]"
"","canvas-keyboard-response","303","220042","0.0-6.0-3.49","38","","","","","clear_screen","null","null","","","critical","c","d","t","164","240","232.8713","160.6713","240","164","spektor","0.05","w","240","164","164","240","232.8713","160.6713","39360","39360","37415.7294","td","null","null","null","null","null","null","[3,2]"
"","canvas-keyboard-response","304","220654","0.0-6.0-4.49","38","","","","","make choice","601","2","","","critical","c","d","t","164","240","232.8713","160.6713","240","164","spektor","0.05","w","240","164","164","240","232.8713","160.6713","39360","39360","37415.7294","td","null","null","null","null","null","null","[3,2]"
"","canvas-keyboard-response","305","220814","0.0-6.0-5.49","38","","","","","clear_screen","null","null","","","critical","c","d","t","164","240","232.8713","160.6713","240","164","spektor","0.05","w","240","164","164","240","232.8713","160.6713","39360","39360","37415.7294","td","null","null","null","null","null","null","[3,2]"
"","canvas-keyboard-response","306","221016","0.0-6.0-0.50","38","","","","","pre trial waiting period","null","null","","","critical","d","c","t","232.8713","160.6713","164","240","240","164","spektor","0.05","w","240","164","164","240","232.8713","160.6713","39360","39360","37415.7294","dc","null","null","null","null","null","null","[1,2]"
"","canvas-keyboard-response","307","221178","0.0-6.0-1.50","38","","","","","clear_screen","null","null","","","critical","d","c","t","232.8713","160.6713","164","240","240","164","spektor","0.05","w","240","164","164","240","232.8713","160.6713","39360","39360","37415.7294","dc","null","null","null","null","null","null","[1,2]"
