"success","trial_type","trial_index","time_elapsed","internal_node_id","sub_n","timeout","failed_images","failed_audio","failed_video","screen_id","rt","response","stimulus","view_history","trial","r1","r2","r3","w1","h1","w2","h2","w3","h3","display","tdd","tdo","tw","th","cw","ch","dw","dh","ta","ca","da","probe","csls","csss","clls","clss","sa","la","probe_rects"
"true","fullscreen","0","2617","0.0-0.0","13","","","","","","","","","","","","","","","","","","","","","","","","","","","","","","","","","","","","","","",""
"true","preload","1","2635","0.0-1.0","13","false","[]","[]","[]","img preload","","","","","","","","","","","","","","","","","","","","","","","","","","","","","","","","","",""
"","survey-html-form","2","4460","0.0-2.0","13","","","","","enter-sub-number","1819","{""response"":""13""}","","","","","","","","","","","","","","","","","","","","","","","","","","","","","","","",""
"","image-button-response","3","42881","0.0-3.0","13","","","","","","38353","0","consent.png","","","","","","","","","","","","","","","","","","","","","","","","","","","","","","",""
"","html-button-response","4","65633","0.0-4.0","13","","","","","intro mssg","22748","0","<div style= ""font-size:25px;"" <p> <strong> Welcome! </strong><br> <p style=""color:#8B0000; font-size:25px;""><strong> Please do NOT exit full screen until you are done with the experiment. </strong> </p><p style=""font-size:25px;color:#8B0000;""> <strong> Your data will be lost <br> if you try to go back or refresh the page after the experiment starts. Feel free to click ""previous"" during the instructions, however.</strong> </p><br><p> <strong> Thanks in advance for your contribution to our research! </strong></p>","","","","","","","","","","","","","","","","","","","","","","","","","","","","","","",""
"","instructions","5","110089","0.0-5.0","13","","","","","instructions","44449","","","[{""page_index"":0,""viewing_time"":7386},{""page_index"":1,""viewing_time"":7823},{""page_index"":2,""viewing_time"":3657},{""page_index"":3,""viewing_time"":7735},{""page_index"":4,""viewing_time"":7729},{""page_index"":5,""viewing_time"":3559},{""page_index"":6,""viewing_time"":3441},{""page_index"":7,""viewing_time"":3119}]","","","","","","","","","","","","","","","","","","","","","","","","","","","","","",""
"","canvas-keyboard-response","6","110298","0.0-6.0-0.0","13","","","","","pre trial waiting period","null","null","","","catch","l","sw","sh","286","233","177","233","171","181","spektor","null","null","null","null","null","null","null","null","null","null","null","","180","200","260","200","36000","52000","[1,3]"
"","canvas-keyboard-response","7","110462","0.0-6.0-1.0","13","","","","","clear_screen","null","null","","","catch","l","sw","sh","286","233","177","233","171","181","spektor","null","null","null","null","null","null","null","null","null","null","null","","180","200","260","200","36000","52000","[1,3]"
"","canvas-keyboard-response","8","111803","0.0-6.0-2.0","13","","","","","rectangles","null","null","","","catch","l","sw","sh","286","233","177","233","171","181","spektor","null","null","null","null","null","null","null","null","null","null","null","","180","200","260","200","36000","52000","[1,3]"
"","canvas-keyboard-response","9","111822","0.0-6.0-3.0","13","","","","","clear_screen","7","1","","","catch","l","sw","sh","286","233","177","233","171","181","spektor","null","null","null","null","null","null","null","null","null","null","null","","180","200","260","200","36000","52000","[1,3]"
"","canvas-keyboard-response","10","115824","0.0-6.0-4.0","13","","","","","make choice","3993","1","","","catch","l","sw","sh","286","233","177","233","171","181","spektor","null","null","null","null","null","null","null","null","null","null","null","","180","200","260","200","36000","52000","[1,3]"
"","canvas-keyboard-response","11","115985","0.0-6.0-5.0","13","","","","","clear_screen","null","null","","","catch","l","sw","sh","286","233","177","233","171","181","spektor","null","null","null","null","null","null","null","null","null","null","null","","180","200","260","200","36000","52000","[1,3]"
"","canvas-keyboard-response","12","116188","0.0-6.0-0.1","13","","","","","pre trial waiting period","null","null","","","critical","d","t","c","240","164","240","164","164","240","spektor","0","w","240","164","164","240","240","164","39360","39360","39360","td","null","null","null","null","null","null","[2,1]"
"","canvas-keyboard-response","13","116353","0.0-6.0-1.1","13","","","","","clear_screen","null","null","","","critical","d","t","c","240","164","240","164","164","240","spektor","0","w","240","164","164","240","240","164","39360","39360","39360","td","null","null","null","null","null","null","[2,1]"
"","canvas-keyboard-response","14","117688","0.0-6.0-2.1","13","","","","","rectangles","null","null","","","critical","d","t","c","240","164","240","164","164","240","spektor","0","w","240","164","164","240","240","164","39360","39360","39360","td","null","null","null","null","null","null","[2,1]"
"","canvas-keyboard-response","15","117850","0.0-6.0-3.1","13","","","","","clear_screen","null","null","","","critical","d","t","c","240","164","240","164","164","240","spektor","0","w","240","164","164","240","240","164","39360","39360","39360","td","null","null","null","null","null","null","[2,1]"
"","canvas-keyboard-response","16","119983","0.0-6.0-4.1","13","","","","","make choice","2124","1","","","critical","d","t","c","240","164","240","164","164","240","spektor","0","w","240","164","164","240","240","164","39360","39360","39360","td","null","null","null","null","null","null","[2,1]"
"","canvas-keyboard-response","17","120143","0.0-6.0-5.1","13","","","","","clear_screen","null","null","","","critical","d","t","c","240","164","240","164","164","240","spektor","0","w","240","164","164","240","240","164","39360","39360","39360","td","null","null","null","null","null","null","[2,1]"
"","canvas-keyboard-response","18","120346","0.0-6.0-0.2","13","","","","","pre trial waiting period","null","null","","","critical","c","t","d","164","240","240","164","227.1683","158.0083","trueblood","0.09","w","240","164","164","240","227.1683","158.0083","39360","39360","35894.4834","tc","null","null","null","null","null","null","[2,1]"
"","canvas-keyboard-response","19","120507","0.0-6.0-1.2","13","","","","","clear_screen","null","null","","","critical","c","t","d","164","240","240","164","227.1683","158.0083","trueblood","0.09","w","240","164","164","240","227.1683","158.0083","39360","39360","35894.4834","tc","null","null","null","null","null","null","[2,1]"
"","canvas-keyboard-response","20","121843","0.0-6.0-2.2","13","","","","","rectangles","null","null","","","critical","c","t","d","164","240","240","164","227.1683","158.0083","trueblood","0.09","w","240","164","164","240","227.1683","158.0083","39360","39360","35894.4834","tc","null","null","null","null","null","null","[2,1]"
"","canvas-keyboard-response","21","122003","0.0-6.0-3.2","13","","","","","clear_screen","null","null","","","critical","c","t","d","164","240","240","164","227.1683","158.0083","trueblood","0.09","w","240","164","164","240","227.1683","158.0083","39360","39360","35894.4834","tc","null","null","null","null","null","null","[2,1]"
"","canvas-keyboard-response","22","123824","0.0-6.0-4.2","13","","","","","make choice","1811","2","","","critical","c","t","d","164","240","240","164","227.1683","158.0083","trueblood","0.09","w","240","164","164","240","227.1683","158.0083","39360","39360","35894.4834","tc","null","null","null","null","null","null","[2,1]"
"","canvas-keyboard-response","23","123985","0.0-6.0-5.2","13","","","","","clear_screen","null","null","","","critical","c","t","d","164","240","240","164","227.1683","158.0083","trueblood","0.09","w","240","164","164","240","227.1683","158.0083","39360","39360","35894.4834","tc","null","null","null","null","null","null","[2,1]"
"","canvas-keyboard-response","24","124186","0.0-6.0-0.3","13","","","","","pre trial waiting period","null","null","","","catch","sh","sw","l","229","213","171","237","225","160","trueblood","null","null","null","null","null","null","null","null","null","null","null","","180","200","260","200","36000","52000","[1,3]"
"","canvas-keyboard-response","25","124349","0.0-6.0-1.3","13","","","","","clear_screen","null","null","","","catch","sh","sw","l","229","213","171","237","225","160","trueblood","null","null","null","null","null","null","null","null","null","null","null","","180","200","260","200","36000","52000","[1,3]"
"","canvas-keyboard-response","26","125686","0.0-6.0-2.3","13","","","","","rectangles","null","null","","","catch","sh","sw","l","229","213","171","237","225","160","trueblood","null","null","null","null","null","null","null","null","null","null","null","","180","200","260","200","36000","52000","[1,3]"
"","canvas-keyboard-response","27","125846","0.0-6.0-3.3","13","","","","","clear_screen","null","null","","","catch","sh","sw","l","229","213","171","237","225","160","trueblood","null","null","null","null","null","null","null","null","null","null","null","","180","200","260","200","36000","52000","[1,3]"
"","canvas-keyboard-response","28","126856","0.0-6.0-4.3","13","","","","","make choice","999","1","","","catch","sh","sw","l","229","213","171","237","225","160","trueblood","null","null","null","null","null","null","null","null","null","null","null","","180","200","260","200","36000","52000","[1,3]"
"","canvas-keyboard-response","29","127015","0.0-6.0-5.3","13","","","","","clear_screen","null","null","","","catch","sh","sw","l","229","213","171","237","225","160","trueblood","null","null","null","null","null","null","null","null","null","null","null","","180","200","260","200","36000","52000","[1,3]"
"","canvas-keyboard-response","30","127217","0.0-6.0-0.4","13","","","","","pre trial waiting period","null","null","","","critical","t","c","d","240","164","164","240","237.1485","162.6685","trueblood","0.02","w","240","164","164","240","237.1485","162.6685","39360","39360","38576.5967","td","null","null","null","null","null","null","[1,3]"
"","canvas-keyboard-response","31","127377","0.0-6.0-1.4","13","","","","","clear_screen","null","null","","","critical","t","c","d","240","164","164","240","237.1485","162.6685","trueblood","0.02","w","240","164","164","240","237.1485","162.6685","39360","39360","38576.5967","td","null","null","null","null","null","null","[1,3]"
"","canvas-keyboard-response","32","128712","0.0-6.0-2.4","13","","","","","rectangles","null","null","","","critical","t","c","d","240","164","164","240","237.1485","162.6685","trueblood","0.02","w","240","164","164","240","237.1485","162.6685","39360","39360","38576.5967","td","null","null","null","null","null","null","[1,3]"
"","canvas-keyboard-response","33","128872","0.0-6.0-3.4","13","","","","","clear_screen","null","null","","","critical","t","c","d","240","164","164","240","237.1485","162.6685","trueblood","0.02","w","240","164","164","240","237.1485","162.6685","39360","39360","38576.5967","td","null","null","null","null","null","null","[1,3]"
"","canvas-keyboard-response","34","132768","0.0-6.0-4.4","13","","","","","make choice","3887","3","","","critical","t","c","d","240","164","164","240","237.1485","162.6685","trueblood","0.02","w","240","164","164","240","237.1485","162.6685","39360","39360","38576.5967","td","null","null","null","null","null","null","[1,3]"
"","canvas-keyboard-response","35","132929","0.0-6.0-5.4","13","","","","","clear_screen","null","null","","","critical","t","c","d","240","164","164","240","237.1485","162.6685","trueblood","0.02","w","240","164","164","240","237.1485","162.6685","39360","39360","38576.5967","td","null","null","null","null","null","null","[1,3]"
"","canvas-keyboard-response","36","133130","0.0-6.0-0.5","13","","","","","pre trial waiting period","null","null","","","critical","d","t","c","164","240","164","240","240","164","trueblood","0","h","164","240","240","164","164","240","39360","39360","39360","td","null","null","null","null","null","null","[2,1]"
"","canvas-keyboard-response","37","133294","0.0-6.0-1.5","13","","","","","clear_screen","null","null","","","critical","d","t","c","164","240","164","240","240","164","trueblood","0","h","164","240","240","164","164","240","39360","39360","39360","td","null","null","null","null","null","null","[2,1]"
"","canvas-keyboard-response","38","134629","0.0-6.0-2.5","13","","","","","rectangles","null","null","","","critical","d","t","c","164","240","164","240","240","164","trueblood","0","h","164","240","240","164","164","240","39360","39360","39360","td","null","null","null","null","null","null","[2,1]"
"","canvas-keyboard-response","39","134789","0.0-6.0-3.5","13","","","","","clear_screen","null","null","","","critical","d","t","c","164","240","164","240","240","164","trueblood","0","h","164","240","240","164","164","240","39360","39360","39360","td","null","null","null","null","null","null","[2,1]"
"","canvas-keyboard-response","40","136215","0.0-6.0-4.5","13","","","","","make choice","1416","1","","","critical","d","t","c","164","240","164","240","240","164","trueblood","0","h","164","240","240","164","164","240","39360","39360","39360","td","null","null","null","null","null","null","[2,1]"
"","canvas-keyboard-response","41","136376","0.0-6.0-5.5","13","","","","","clear_screen","null","null","","","critical","d","t","c","164","240","164","240","240","164","trueblood","0","h","164","240","240","164","164","240","39360","39360","39360","td","null","null","null","null","null","null","[2,1]"
"","canvas-keyboard-response","42","136578","0.0-6.0-0.6","13","","","","","pre trial waiting period","null","null","","","critical","c","t","d","240","164","164","240","162.6685","237.1485","spektor","0.02","h","164","240","240","164","162.6685","237.1485","39360","39360","38576.5967","dc","null","null","null","null","null","null","[3,1]"
"","canvas-keyboard-response","43","136737","0.0-6.0-1.6","13","","","","","clear_screen","null","null","","","critical","c","t","d","240","164","164","240","162.6685","237.1485","spektor","0.02","h","164","240","240","164","162.6685","237.1485","39360","39360","38576.5967","dc","null","null","null","null","null","null","[3,1]"
"","canvas-keyboard-response","44","138077","0.0-6.0-2.6","13","","","","","rectangles","null","null","","","critical","c","t","d","240","164","164","240","162.6685","237.1485","spektor","0.02","h","164","240","240","164","162.6685","237.1485","39360","39360","38576.5967","dc","null","null","null","null","null","null","[3,1]"
"","canvas-keyboard-response","45","138240","0.0-6.0-3.6","13","","","","","clear_screen","null","null","","","critical","c","t","d","240","164","164","240","162.6685","237.1485","spektor","0.02","h","164","240","240","164","162.6685","237.1485","39360","39360","38576.5967","dc","null","null","null","null","null","null","[3,1]"
"","canvas-keyboard-response","46","139544","0.0-6.0-4.6","13","","","","","make choice","1289","1","","","critical","c","t","d","240","164","164","240","162.6685","237.1485","spektor","0.02","h","164","240","240","164","162.6685","237.1485","39360","39360","38576.5967","dc","null","null","null","null","null","null","[3,1]"
"","canvas-keyboard-response","47","139703","0.0-6.0-5.6","13","","","","","clear_screen","null","null","","","critical","c","t","d","240","164","164","240","162.6685","237.1485","spektor","0.02","h","164","240","240","164","162.6685","237.1485","39360","39360","38576.5967","dc","null","null","null","null","null","null","[3,1]"
"","canvas-keyboard-response","48","139904","0.0-6.0-0.7","13","","","","","pre trial waiting period","null","null","","","critical","d","c","t","232.8713","160.6713","164","240","240","164","trueblood","0.05","w","240","164","164","240","232.8713","160.6713","39360","39360","37415.7294","tc","null","null","null","null","null","null","[3,2]"
"","canvas-keyboard-response","49","140058","0.0-6.0-1.7","13","","","","","clear_screen","null","null","","","critical","d","c","t","232.8713","160.6713","164","240","240","164","trueblood","0.05","w","240","164","164","240","232.8713","160.6713","39360","39360","37415.7294","tc","null","null","null","null","null","null","[3,2]"
"","canvas-keyboard-response","50","141397","0.0-6.0-2.7","13","","","","","rectangles","null","null","","","critical","d","c","t","232.8713","160.6713","164","240","240","164","trueblood","0.05","w","240","164","164","240","232.8713","160.6713","39360","39360","37415.7294","tc","null","null","null","null","null","null","[3,2]"
"","canvas-keyboard-response","51","141556","0.0-6.0-3.7","13","","","","","clear_screen","null","null","","","critical","d","c","t","232.8713","160.6713","164","240","240","164","trueblood","0.05","w","240","164","164","240","232.8713","160.6713","39360","39360","37415.7294","tc","null","null","null","null","null","null","[3,2]"
"","canvas-keyboard-response","52","142760","0.0-6.0-4.7","13","","","","","make choice","1193","2","","","critical","d","c","t","232.8713","160.6713","164","240","240","164","trueblood","0.05","w","240","164","164","240","232.8713","160.6713","39360","39360","37415.7294","tc","null","null","null","null","null","null","[3,2]"
"","canvas-keyboard-response","53","142922","0.0-6.0-5.7","13","","","","","clear_screen","null","null","","","critical","d","c","t","232.8713","160.6713","164","240","240","164","trueblood","0.05","w","240","164","164","240","232.8713","160.6713","39360","39360","37415.7294","tc","null","null","null","null","null","null","[3,2]"
"","canvas-keyboard-response","54","143124","0.0-6.0-0.8","13","","","","","pre trial waiting period","null","null","","","critical","t","c","d","164","240","240","164","158.0083","227.1683","spektor","0.09","h","164","240","240","164","158.0083","227.1683","39360","39360","35894.4834","tc","null","null","null","null","null","null","[1,2]"
"","canvas-keyboard-response","55","143289","0.0-6.0-1.8","13","","","","","clear_screen","null","null","","","critical","t","c","d","164","240","240","164","158.0083","227.1683","spektor","0.09","h","164","240","240","164","158.0083","227.1683","39360","39360","35894.4834","tc","null","null","null","null","null","null","[1,2]"
"","canvas-keyboard-response","56","144625","0.0-6.0-2.8","13","","","","","rectangles","null","null","","","critical","t","c","d","164","240","240","164","158.0083","227.1683","spektor","0.09","h","164","240","240","164","158.0083","227.1683","39360","39360","35894.4834","tc","null","null","null","null","null","null","[1,2]"
"","canvas-keyboard-response","57","144785","0.0-6.0-3.8","13","","","","","clear_screen","null","null","","","critical","t","c","d","164","240","240","164","158.0083","227.1683","spektor","0.09","h","164","240","240","164","158.0083","227.1683","39360","39360","35894.4834","tc","null","null","null","null","null","null","[1,2]"
"","canvas-keyboard-response","58","146176","0.0-6.0-4.8","13","","","","","make choice","1378","1","","","critical","t","c","d","164","240","240","164","158.0083","227.1683","spektor","0.09","h","164","240","240","164","158.0083","227.1683","39360","39360","35894.4834","tc","null","null","null","null","null","null","[1,2]"
"","canvas-keyboard-response","59","146337","0.0-6.0-5.8","13","","","","","clear_screen","null","null","","","critical","t","c","d","164","240","240","164","158.0083","227.1683","spektor","0.09","h","164","240","240","164","158.0083","227.1683","39360","39360","35894.4834","tc","null","null","null","null","null","null","[1,2]"
"","canvas-keyboard-response","60","146538","0.0-6.0-0.9","13","","","","","pre trial waiting period","null","null","","","critical","t","d","c","164","240","154.6796","220.0396","240","164","trueblood","0.14","h","164","240","240","164","154.6796","220.0396","39360","39360","34035.6388","tc","null","null","null","null","null","null","[1,3]"
"","canvas-keyboard-response","61","146698","0.0-6.0-1.9","13","","","","","clear_screen","null","null","","","critical","t","d","c","164","240","154.6796","220.0396","240","164","trueblood","0.14","h","164","240","240","164","154.6796","220.0396","39360","39360","34035.6388","tc","null","null","null","null","null","null","[1,3]"
"","canvas-keyboard-response","62","148036","0.0-6.0-2.9","13","","","","","rectangles","null","null","","","critical","t","d","c","164","240","154.6796","220.0396","240","164","trueblood","0.14","h","164","240","240","164","154.6796","220.0396","39360","39360","34035.6388","tc","null","null","null","null","null","null","[1,3]"
"","canvas-keyboard-response","63","148195","0.0-6.0-3.9","13","","","","","clear_screen","null","null","","","critical","t","d","c","164","240","154.6796","220.0396","240","164","trueblood","0.14","h","164","240","240","164","154.6796","220.0396","39360","39360","34035.6388","tc","null","null","null","null","null","null","[1,3]"
"","canvas-keyboard-response","64","149031","0.0-6.0-4.9","13","","","","","make choice","824","1","","","critical","t","d","c","164","240","154.6796","220.0396","240","164","trueblood","0.14","h","164","240","240","164","154.6796","220.0396","39360","39360","34035.6388","tc","null","null","null","null","null","null","[1,3]"
"","canvas-keyboard-response","65","149192","0.0-6.0-5.9","13","","","","","clear_screen","null","null","","","critical","t","d","c","164","240","154.6796","220.0396","240","164","trueblood","0.14","h","164","240","240","164","154.6796","220.0396","39360","39360","34035.6388","tc","null","null","null","null","null","null","[1,3]"
"","canvas-keyboard-response","66","149393","0.0-6.0-0.10","13","","","","","pre trial waiting period","null","null","","","critical","d","t","c","240","164","240","164","164","240","trueblood","0","w","240","164","164","240","240","164","39360","39360","39360","tc","null","null","null","null","null","null","[2,3]"
"","canvas-keyboard-response","67","149555","0.0-6.0-1.10","13","","","","","clear_screen","null","null","","","critical","d","t","c","240","164","240","164","164","240","trueblood","0","w","240","164","164","240","240","164","39360","39360","39360","tc","null","null","null","null","null","null","[2,3]"
"","canvas-keyboard-response","68","150893","0.0-6.0-2.10","13","","","","","rectangles","null","null","","","critical","d","t","c","240","164","240","164","164","240","trueblood","0","w","240","164","164","240","240","164","39360","39360","39360","tc","null","null","null","null","null","null","[2,3]"
"","canvas-keyboard-response","69","151054","0.0-6.0-3.10","13","","","","","clear_screen","null","null","","","critical","d","t","c","240","164","240","164","164","240","trueblood","0","w","240","164","164","240","240","164","39360","39360","39360","tc","null","null","null","null","null","null","[2,3]"
"","canvas-keyboard-response","70","152616","0.0-6.0-4.10","13","","","","","make choice","1551","2","","","critical","d","t","c","240","164","240","164","164","240","trueblood","0","w","240","164","164","240","240","164","39360","39360","39360","tc","null","null","null","null","null","null","[2,3]"
"","canvas-keyboard-response","71","152775","0.0-6.0-5.10","13","","","","","clear_screen","null","null","","","critical","d","t","c","240","164","240","164","164","240","trueblood","0","w","240","164","164","240","240","164","39360","39360","39360","tc","null","null","null","null","null","null","[2,3]"
"","canvas-keyboard-response","72","152976","0.0-6.0-0.11","13","","","","","pre trial waiting period","null","null","","","catch","sh","l","sw","178","150","169","269","140","187","spektor","null","null","null","null","null","null","null","null","null","null","null","","180","200","260","200","36000","52000","[2,3]"
"","canvas-keyboard-response","73","153140","0.0-6.0-1.11","13","","","","","clear_screen","null","null","","","catch","sh","l","sw","178","150","169","269","140","187","spektor","null","null","null","null","null","null","null","null","null","null","null","","180","200","260","200","36000","52000","[2,3]"
"","canvas-keyboard-response","74","154479","0.0-6.0-2.11","13","","","","","rectangles","null","null","","","catch","sh","l","sw","178","150","169","269","140","187","spektor","null","null","null","null","null","null","null","null","null","null","null","","180","200","260","200","36000","52000","[2,3]"
"","canvas-keyboard-response","75","154638","0.0-6.0-3.11","13","","","","","clear_screen","null","null","","","catch","sh","l","sw","178","150","169","269","140","187","spektor","null","null","null","null","null","null","null","null","null","null","null","","180","200","260","200","36000","52000","[2,3]"
"","canvas-keyboard-response","76","155592","0.0-6.0-4.11","13","","","","","make choice","940","2","","","catch","sh","l","sw","178","150","169","269","140","187","spektor","null","null","null","null","null","null","null","null","null","null","null","","180","200","260","200","36000","52000","[2,3]"
"","canvas-keyboard-response","77","155752","0.0-6.0-5.11","13","","","","","clear_screen","null","null","","","catch","sh","l","sw","178","150","169","269","140","187","spektor","null","null","null","null","null","null","null","null","null","null","null","","180","200","260","200","36000","52000","[2,3]"
"","canvas-keyboard-response","78","155954","0.0-6.0-0.12","13","","","","","pre trial waiting period","null","null","","","critical","t","c","d","164","240","240","164","164","240","trueblood","0","h","164","240","240","164","164","240","39360","39360","39360","dc","null","null","null","null","null","null","[3,2]"
"","canvas-keyboard-response","79","156114","0.0-6.0-1.12","13","","","","","clear_screen","null","null","","","critical","t","c","d","164","240","240","164","164","240","trueblood","0","h","164","240","240","164","164","240","39360","39360","39360","dc","null","null","null","null","null","null","[3,2]"
"","canvas-keyboard-response","80","157452","0.0-6.0-2.12","13","","","","","rectangles","null","null","","","critical","t","c","d","164","240","240","164","164","240","trueblood","0","h","164","240","240","164","164","240","39360","39360","39360","dc","null","null","null","null","null","null","[3,2]"
"","canvas-keyboard-response","81","157613","0.0-6.0-3.12","13","","","","","clear_screen","null","null","","","critical","t","c","d","164","240","240","164","164","240","trueblood","0","h","164","240","240","164","164","240","39360","39360","39360","dc","null","null","null","null","null","null","[3,2]"
"","canvas-keyboard-response","82","158656","0.0-6.0-4.12","13","","","","","make choice","1034","3","","","critical","t","c","d","164","240","240","164","164","240","trueblood","0","h","164","240","240","164","164","240","39360","39360","39360","dc","null","null","null","null","null","null","[3,2]"
"","canvas-keyboard-response","83","158814","0.0-6.0-5.12","13","","","","","clear_screen","null","null","","","critical","t","c","d","164","240","240","164","164","240","trueblood","0","h","164","240","240","164","164","240","39360","39360","39360","dc","null","null","null","null","null","null","[3,2]"
"","canvas-keyboard-response","84","159015","0.0-6.0-0.13","13","","","","","pre trial waiting period","null","null","","","critical","d","c","t","154.6796","220.0396","240","164","164","240","spektor","0.14","h","164","240","240","164","154.6796","220.0396","39360","39360","34035.6388","dc","null","null","null","null","null","null","[1,2]"
"","canvas-keyboard-response","85","159175","0.0-6.0-1.13","13","","","","","clear_screen","null","null","","","critical","d","c","t","154.6796","220.0396","240","164","164","240","spektor","0.14","h","164","240","240","164","154.6796","220.0396","39360","39360","34035.6388","dc","null","null","null","null","null","null","[1,2]"
"","canvas-keyboard-response","86","160516","0.0-6.0-2.13","13","","","","","rectangles","null","null","","","critical","d","c","t","154.6796","220.0396","240","164","164","240","spektor","0.14","h","164","240","240","164","154.6796","220.0396","39360","39360","34035.6388","dc","null","null","null","null","null","null","[1,2]"
"","canvas-keyboard-response","87","160680","0.0-6.0-3.13","13","","","","","clear_screen","null","null","","","critical","d","c","t","154.6796","220.0396","240","164","164","240","spektor","0.14","h","164","240","240","164","154.6796","220.0396","39360","39360","34035.6388","dc","null","null","null","null","null","null","[1,2]"
"","canvas-keyboard-response","88","161719","0.0-6.0-4.13","13","","","","","make choice","1030","2","","","critical","d","c","t","154.6796","220.0396","240","164","164","240","spektor","0.14","h","164","240","240","164","154.6796","220.0396","39360","39360","34035.6388","dc","null","null","null","null","null","null","[1,2]"
"","canvas-keyboard-response","89","161878","0.0-6.0-5.13","13","","","","","clear_screen","null","null","","","critical","d","c","t","154.6796","220.0396","240","164","164","240","spektor","0.14","h","164","240","240","164","154.6796","220.0396","39360","39360","34035.6388","dc","null","null","null","null","null","null","[1,2]"
"","canvas-keyboard-response","90","162079","0.0-6.0-0.14","13","","","","","pre trial waiting period","null","null","","","catch","sw","sh","l","180","200","238","208","274","183","trueblood","null","null","null","null","null","null","null","null","null","null","null","","180","200","260","200","36000","52000","[2,3]"
"","canvas-keyboard-response","91","162239","0.0-6.0-1.14","13","","","","","clear_screen","null","null","","","catch","sw","sh","l","180","200","238","208","274","183","trueblood","null","null","null","null","null","null","null","null","null","null","null","","180","200","260","200","36000","52000","[2,3]"
"","canvas-keyboard-response","92","163578","0.0-6.0-2.14","13","","","","","rectangles","null","null","","","catch","sw","sh","l","180","200","238","208","274","183","trueblood","null","null","null","null","null","null","null","null","null","null","null","","180","200","260","200","36000","52000","[2,3]"
"","canvas-keyboard-response","93","163738","0.0-6.0-3.14","13","","","","","clear_screen","null","null","","","catch","sw","sh","l","180","200","238","208","274","183","trueblood","null","null","null","null","null","null","null","null","null","null","null","","180","200","260","200","36000","52000","[2,3]"
"","canvas-keyboard-response","94","164640","0.0-6.0-4.14","13","","","","","make choice","890","3","","","catch","sw","sh","l","180","200","238","208","274","183","trueblood","null","null","null","null","null","null","null","null","null","null","null","","180","200","260","200","36000","52000","[2,3]"
"","canvas-keyboard-response","95","164799","0.0-6.0-5.14","13","","","","","clear_screen","null","null","","","catch","sw","sh","l","180","200","238","208","274","183","trueblood","null","null","null","null","null","null","null","null","null","null","null","","180","200","260","200","36000","52000","[2,3]"
"","canvas-keyboard-response","96","165000","0.0-6.0-0.15","13","","","","","pre trial waiting period","null","null","","","critical","c","d","t","240","164","160.6713","232.8713","164","240","trueblood","0.05","h","164","240","240","164","160.6713","232.8713","39360","39360","37415.7294","tc","null","null","null","null","null","null","[3,1]"
"","canvas-keyboard-response","97","165164","0.0-6.0-1.15","13","","","","","clear_screen","null","null","","","critical","c","d","t","240","164","160.6713","232.8713","164","240","trueblood","0.05","h","164","240","240","164","160.6713","232.8713","39360","39360","37415.7294","tc","null","null","null","null","null","null","[3,1]"
"","canvas-keyboard-response","98","166500","0.0-6.0-2.15","13","","","","","rectangles","null","null","","","critical","c","d","t","240","164","160.6713","232.8713","164","240","trueblood","0.05","h","164","240","240","164","160.6713","232.8713","39360","39360","37415.7294","tc","null","null","null","null","null","null","[3,1]"
"","canvas-keyboard-response","99","166664","0.0-6.0-3.15","13","","","","","clear_screen","null","null","","","critical","c","d","t","240","164","160.6713","232.8713","164","240","trueblood","0.05","h","164","240","240","164","160.6713","232.8713","39360","39360","37415.7294","tc","null","null","null","null","null","null","[3,1]"
"","canvas-keyboard-response","100","167624","0.0-6.0-4.15","13","","","","","make choice","950","3","","","critical","c","d","t","240","164","160.6713","232.8713","164","240","trueblood","0.05","h","164","240","240","164","160.6713","232.8713","39360","39360","37415.7294","tc","null","null","null","null","null","null","[3,1]"
"","canvas-keyboard-response","101","167784","0.0-6.0-5.15","13","","","","","clear_screen","null","null","","","critical","c","d","t","240","164","160.6713","232.8713","164","240","trueblood","0.05","h","164","240","240","164","160.6713","232.8713","39360","39360","37415.7294","tc","null","null","null","null","null","null","[3,1]"
"","canvas-keyboard-response","102","167986","0.0-6.0-0.16","13","","","","","pre trial waiting period","null","null","","","critical","c","d","t","164","240","237.1485","162.6685","240","164","spektor","0.02","w","240","164","164","240","237.1485","162.6685","39360","39360","38576.5967","dc","null","null","null","null","null","null","[2,1]"
"","canvas-keyboard-response","103","168148","0.0-6.0-1.16","13","","","","","clear_screen","null","null","","","critical","c","d","t","164","240","237.1485","162.6685","240","164","spektor","0.02","w","240","164","164","240","237.1485","162.6685","39360","39360","38576.5967","dc","null","null","null","null","null","null","[2,1]"
"","canvas-keyboard-response","104","169488","0.0-6.0-2.16","13","","","","","rectangles","null","null","","","critical","c","d","t","164","240","237.1485","162.6685","240","164","spektor","0.02","w","240","164","164","240","237.1485","162.6685","39360","39360","38576.5967","dc","null","null","null","null","null","null","[2,1]"
"","canvas-keyboard-response","105","169652","0.0-6.0-3.16","13","","","","","clear_screen","null","null","","","critical","c","d","t","164","240","237.1485","162.6685","240","164","spektor","0.02","w","240","164","164","240","237.1485","162.6685","39360","39360","38576.5967","dc","null","null","null","null","null","null","[2,1]"
"","canvas-keyboard-response","106","170232","0.0-6.0-4.16","13","","","","","make choice","570","1","","","critical","c","d","t","164","240","237.1485","162.6685","240","164","spektor","0.02","w","240","164","164","240","237.1485","162.6685","39360","39360","38576.5967","dc","null","null","null","null","null","null","[2,1]"
"","canvas-keyboard-response","107","170392","0.0-6.0-5.16","13","","","","","clear_screen","null","null","","","critical","c","d","t","164","240","237.1485","162.6685","240","164","spektor","0.02","w","240","164","164","240","237.1485","162.6685","39360","39360","38576.5967","dc","null","null","null","null","null","null","[2,1]"
"","canvas-keyboard-response","108","170593","0.0-6.0-0.17","13","","","","","pre trial waiting period","null","null","","","catch","l","sw","sh","253","163","161","163","162","163","spektor","null","null","null","null","null","null","null","null","null","null","null","","180","200","260","200","36000","52000","[1,2]"
"","canvas-keyboard-response","109","170754","0.0-6.0-1.17","13","","","","","clear_screen","null","null","","","catch","l","sw","sh","253","163","161","163","162","163","spektor","null","null","null","null","null","null","null","null","null","null","null","","180","200","260","200","36000","52000","[1,2]"
"","canvas-keyboard-response","110","172089","0.0-6.0-2.17","13","","","","","rectangles","null","null","","","catch","l","sw","sh","253","163","161","163","162","163","spektor","null","null","null","null","null","null","null","null","null","null","null","","180","200","260","200","36000","52000","[1,2]"
"","canvas-keyboard-response","111","172253","0.0-6.0-3.17","13","","","","","clear_screen","null","null","","","catch","l","sw","sh","253","163","161","163","162","163","spektor","null","null","null","null","null","null","null","null","null","null","null","","180","200","260","200","36000","52000","[1,2]"
"","canvas-keyboard-response","112","173048","0.0-6.0-4.17","13","","","","","make choice","782","1","","","catch","l","sw","sh","253","163","161","163","162","163","spektor","null","null","null","null","null","null","null","null","null","null","null","","180","200","260","200","36000","52000","[1,2]"
"","canvas-keyboard-response","113","173209","0.0-6.0-5.17","13","","","","","clear_screen","null","null","","","catch","l","sw","sh","253","163","161","163","162","163","spektor","null","null","null","null","null","null","null","null","null","null","null","","180","200","260","200","36000","52000","[1,2]"
"","canvas-keyboard-response","114","173410","0.0-6.0-0.18","13","","","","","pre trial waiting period","null","null","","","critical","d","t","c","227.1683","158.0083","240","164","164","240","spektor","0.09","w","240","164","164","240","227.1683","158.0083","39360","39360","35894.4834","dc","null","null","null","null","null","null","[1,3]"
"","canvas-keyboard-response","115","173572","0.0-6.0-1.18","13","","","","","clear_screen","null","null","","","critical","d","t","c","227.1683","158.0083","240","164","164","240","spektor","0.09","w","240","164","164","240","227.1683","158.0083","39360","39360","35894.4834","dc","null","null","null","null","null","null","[1,3]"
"","canvas-keyboard-response","116","174907","0.0-6.0-2.18","13","","","","","rectangles","null","null","","","critical","d","t","c","227.1683","158.0083","240","164","164","240","spektor","0.09","w","240","164","164","240","227.1683","158.0083","39360","39360","35894.4834","dc","null","null","null","null","null","null","[1,3]"
"","canvas-keyboard-response","117","175069","0.0-6.0-3.18","13","","","","","clear_screen","null","null","","","critical","d","t","c","227.1683","158.0083","240","164","164","240","spektor","0.09","w","240","164","164","240","227.1683","158.0083","39360","39360","35894.4834","dc","null","null","null","null","null","null","[1,3]"
"","canvas-keyboard-response","118","175911","0.0-6.0-4.18","13","","","","","make choice","832","3","","","critical","d","t","c","227.1683","158.0083","240","164","164","240","spektor","0.09","w","240","164","164","240","227.1683","158.0083","39360","39360","35894.4834","dc","null","null","null","null","null","null","[1,3]"
"","canvas-keyboard-response","119","176071","0.0-6.0-5.18","13","","","","","clear_screen","null","null","","","critical","d","t","c","227.1683","158.0083","240","164","164","240","spektor","0.09","w","240","164","164","240","227.1683","158.0083","39360","39360","35894.4834","dc","null","null","null","null","null","null","[1,3]"
"","canvas-keyboard-response","120","176273","0.0-6.0-0.19","13","","","","","pre trial waiting period","null","null","","","critical","d","c","t","227.1683","158.0083","164","240","240","164","trueblood","0.09","w","240","164","164","240","227.1683","158.0083","39360","39360","35894.4834","td","null","null","null","null","null","null","[3,1]"
"","canvas-keyboard-response","121","176433","0.0-6.0-1.19","13","","","","","clear_screen","null","null","","","critical","d","c","t","227.1683","158.0083","164","240","240","164","trueblood","0.09","w","240","164","164","240","227.1683","158.0083","39360","39360","35894.4834","td","null","null","null","null","null","null","[3,1]"
"","canvas-keyboard-response","122","177770","0.0-6.0-2.19","13","","","","","rectangles","null","null","","","critical","d","c","t","227.1683","158.0083","164","240","240","164","trueblood","0.09","w","240","164","164","240","227.1683","158.0083","39360","39360","35894.4834","td","null","null","null","null","null","null","[3,1]"
"","canvas-keyboard-response","123","177931","0.0-6.0-3.19","13","","","","","clear_screen","null","null","","","critical","d","c","t","227.1683","158.0083","164","240","240","164","trueblood","0.09","w","240","164","164","240","227.1683","158.0083","39360","39360","35894.4834","td","null","null","null","null","null","null","[3,1]"
"","canvas-keyboard-response","124","178864","0.0-6.0-4.19","13","","","","","make choice","921","3","","","critical","d","c","t","227.1683","158.0083","164","240","240","164","trueblood","0.09","w","240","164","164","240","227.1683","158.0083","39360","39360","35894.4834","td","null","null","null","null","null","null","[3,1]"
"","canvas-keyboard-response","125","179022","0.0-6.0-5.19","13","","","","","clear_screen","null","null","","","critical","d","c","t","227.1683","158.0083","164","240","240","164","trueblood","0.09","w","240","164","164","240","227.1683","158.0083","39360","39360","35894.4834","td","null","null","null","null","null","null","[3,1]"
"","canvas-keyboard-response","126","179224","0.0-6.0-0.20","13","","","","","pre trial waiting period","null","null","","","critical","t","d","c","164","240","160.6713","232.8713","240","164","spektor","0.05","h","164","240","240","164","160.6713","232.8713","39360","39360","37415.7294","td","null","null","null","null","null","null","[1,2]"
"","canvas-keyboard-response","127","179386","0.0-6.0-1.20","13","","","","","clear_screen","null","null","","","critical","t","d","c","164","240","160.6713","232.8713","240","164","spektor","0.05","h","164","240","240","164","160.6713","232.8713","39360","39360","37415.7294","td","null","null","null","null","null","null","[1,2]"
"","canvas-keyboard-response","128","180724","0.0-6.0-2.20","13","","","","","rectangles","null","null","","","critical","t","d","c","164","240","160.6713","232.8713","240","164","spektor","0.05","h","164","240","240","164","160.6713","232.8713","39360","39360","37415.7294","td","null","null","null","null","null","null","[1,2]"
"","canvas-keyboard-response","129","180887","0.0-6.0-3.20","13","","","","","clear_screen","null","null","","","critical","t","d","c","164","240","160.6713","232.8713","240","164","spektor","0.05","h","164","240","240","164","160.6713","232.8713","39360","39360","37415.7294","td","null","null","null","null","null","null","[1,2]"
"","canvas-keyboard-response","130","181839","0.0-6.0-4.20","13","","","","","make choice","943","1","","","critical","t","d","c","164","240","160.6713","232.8713","240","164","spektor","0.05","h","164","240","240","164","160.6713","232.8713","39360","39360","37415.7294","td","null","null","null","null","null","null","[1,2]"
"","canvas-keyboard-response","131","181998","0.0-6.0-5.20","13","","","","","clear_screen","null","null","","","critical","t","d","c","164","240","160.6713","232.8713","240","164","spektor","0.05","h","164","240","240","164","160.6713","232.8713","39360","39360","37415.7294","td","null","null","null","null","null","null","[1,2]"
"","canvas-keyboard-response","132","182199","0.0-6.0-0.21","13","","","","","pre trial waiting period","null","null","","","critical","c","d","t","240","164","158.0083","227.1683","164","240","trueblood","0.09","h","164","240","240","164","158.0083","227.1683","39360","39360","35894.4834","tc","null","null","null","null","null","null","[3,1]"
"","canvas-keyboard-response","133","182359","0.0-6.0-1.21","13","","","","","clear_screen","null","null","","","critical","c","d","t","240","164","158.0083","227.1683","164","240","trueblood","0.09","h","164","240","240","164","158.0083","227.1683","39360","39360","35894.4834","tc","null","null","null","null","null","null","[3,1]"
"","canvas-keyboard-response","134","183696","0.0-6.0-2.21","13","","","","","rectangles","null","null","","","critical","c","d","t","240","164","158.0083","227.1683","164","240","trueblood","0.09","h","164","240","240","164","158.0083","227.1683","39360","39360","35894.4834","tc","null","null","null","null","null","null","[3,1]"
"","canvas-keyboard-response","135","183855","0.0-6.0-3.21","13","","","","","clear_screen","null","null","","","critical","c","d","t","240","164","158.0083","227.1683","164","240","trueblood","0.09","h","164","240","240","164","158.0083","227.1683","39360","39360","35894.4834","tc","null","null","null","null","null","null","[3,1]"
"","canvas-keyboard-response","136","184486","0.0-6.0-4.21","13","","","","","make choice","617","3","","","critical","c","d","t","240","164","158.0083","227.1683","164","240","trueblood","0.09","h","164","240","240","164","158.0083","227.1683","39360","39360","35894.4834","tc","null","null","null","null","null","null","[3,1]"
"","canvas-keyboard-response","137","184642","0.0-6.0-5.21","13","","","","","clear_screen","null","null","","","critical","c","d","t","240","164","158.0083","227.1683","164","240","trueblood","0.09","h","164","240","240","164","158.0083","227.1683","39360","39360","35894.4834","tc","null","null","null","null","null","null","[3,1]"
"","canvas-keyboard-response","138","184843","0.0-6.0-0.22","13","","","","","pre trial waiting period","null","null","","","critical","t","d","c","240","164","232.8713","160.6713","164","240","trueblood","0.05","w","240","164","164","240","232.8713","160.6713","39360","39360","37415.7294","dc","null","null","null","null","null","null","[2,3]"
"","canvas-keyboard-response","139","185003","0.0-6.0-1.22","13","","","","","clear_screen","null","null","","","critical","t","d","c","240","164","232.8713","160.6713","164","240","trueblood","0.05","w","240","164","164","240","232.8713","160.6713","39360","39360","37415.7294","dc","null","null","null","null","null","null","[2,3]"
"","canvas-keyboard-response","140","186339","0.0-6.0-2.22","13","","","","","rectangles","null","null","","","critical","t","d","c","240","164","232.8713","160.6713","164","240","trueblood","0.05","w","240","164","164","240","232.8713","160.6713","39360","39360","37415.7294","dc","null","null","null","null","null","null","[2,3]"
"","canvas-keyboard-response","141","186503","0.0-6.0-3.22","13","","","","","clear_screen","null","null","","","critical","t","d","c","240","164","232.8713","160.6713","164","240","trueblood","0.05","w","240","164","164","240","232.8713","160.6713","39360","39360","37415.7294","dc","null","null","null","null","null","null","[2,3]"
"","canvas-keyboard-response","142","187280","0.0-6.0-4.22","13","","","","","make choice","765","3","","","critical","t","d","c","240","164","232.8713","160.6713","164","240","trueblood","0.05","w","240","164","164","240","232.8713","160.6713","39360","39360","37415.7294","dc","null","null","null","null","null","null","[2,3]"
"","canvas-keyboard-response","143","187440","0.0-6.0-5.22","13","","","","","clear_screen","null","null","","","critical","t","d","c","240","164","232.8713","160.6713","164","240","trueblood","0.05","w","240","164","164","240","232.8713","160.6713","39360","39360","37415.7294","dc","null","null","null","null","null","null","[2,3]"
"","canvas-keyboard-response","144","187642","0.0-6.0-0.23","13","","","","","pre trial waiting period","null","null","","","critical","c","d","t","240","164","162.6685","237.1485","164","240","trueblood","0.02","h","164","240","240","164","162.6685","237.1485","39360","39360","38576.5967","tc","null","null","null","null","null","null","[3,1]"
"","canvas-keyboard-response","145","187802","0.0-6.0-1.23","13","","","","","clear_screen","null","null","","","critical","c","d","t","240","164","162.6685","237.1485","164","240","trueblood","0.02","h","164","240","240","164","162.6685","237.1485","39360","39360","38576.5967","tc","null","null","null","null","null","null","[3,1]"
"","canvas-keyboard-response","146","189140","0.0-6.0-2.23","13","","","","","rectangles","null","null","","","critical","c","d","t","240","164","162.6685","237.1485","164","240","trueblood","0.02","h","164","240","240","164","162.6685","237.1485","39360","39360","38576.5967","tc","null","null","null","null","null","null","[3,1]"
"","canvas-keyboard-response","147","189304","0.0-6.0-3.23","13","","","","","clear_screen","null","null","","","critical","c","d","t","240","164","162.6685","237.1485","164","240","trueblood","0.02","h","164","240","240","164","162.6685","237.1485","39360","39360","38576.5967","tc","null","null","null","null","null","null","[3,1]"
"","canvas-keyboard-response","148","190368","0.0-6.0-4.23","13","","","","","make choice","1051","1","","","critical","c","d","t","240","164","162.6685","237.1485","164","240","trueblood","0.02","h","164","240","240","164","162.6685","237.1485","39360","39360","38576.5967","tc","null","null","null","null","null","null","[3,1]"
"","canvas-keyboard-response","149","190527","0.0-6.0-5.23","13","","","","","clear_screen","null","null","","","critical","c","d","t","240","164","162.6685","237.1485","164","240","trueblood","0.02","h","164","240","240","164","162.6685","237.1485","39360","39360","38576.5967","tc","null","null","null","null","null","null","[3,1]"
"","canvas-keyboard-response","150","190728","0.0-6.0-0.24","13","","","","","pre trial waiting period","null","null","","","catch","sh","sw","l","163","170","212","163","196","286","spektor","null","null","null","null","null","null","null","null","null","null","null","","180","200","260","200","36000","52000","[2,3]"
"","canvas-keyboard-response","151","190889","0.0-6.0-1.24","13","","","","","clear_screen","null","null","","","catch","sh","sw","l","163","170","212","163","196","286","spektor","null","null","null","null","null","null","null","null","null","null","null","","180","200","260","200","36000","52000","[2,3]"
"","canvas-keyboard-response","152","192225","0.0-6.0-2.24","13","","","","","rectangles","null","null","","","catch","sh","sw","l","163","170","212","163","196","286","spektor","null","null","null","null","null","null","null","null","null","null","null","","180","200","260","200","36000","52000","[2,3]"
"","canvas-keyboard-response","153","192385","0.0-6.0-3.24","13","","","","","clear_screen","null","null","","","catch","sh","sw","l","163","170","212","163","196","286","spektor","null","null","null","null","null","null","null","null","null","null","null","","180","200","260","200","36000","52000","[2,3]"
"","canvas-keyboard-response","154","193167","0.0-6.0-4.24","13","","","","","make choice","773","3","","","catch","sh","sw","l","163","170","212","163","196","286","spektor","null","null","null","null","null","null","null","null","null","null","null","","180","200","260","200","36000","52000","[2,3]"
"","canvas-keyboard-response","155","193326","0.0-6.0-5.24","13","","","","","clear_screen","null","null","","","catch","sh","sw","l","163","170","212","163","196","286","spektor","null","null","null","null","null","null","null","null","null","null","null","","180","200","260","200","36000","52000","[2,3]"
"","canvas-keyboard-response","156","193527","0.0-6.0-0.25","13","","","","","pre trial waiting period","null","null","","","catch","sh","l","sw","233","179","239","267","155","224","spektor","null","null","null","null","null","null","null","null","null","null","null","","180","200","260","200","36000","52000","[1,2]"
"","canvas-keyboard-response","157","193692","0.0-6.0-1.25","13","","","","","clear_screen","null","null","","","catch","sh","l","sw","233","179","239","267","155","224","spektor","null","null","null","null","null","null","null","null","null","null","null","","180","200","260","200","36000","52000","[1,2]"
"","canvas-keyboard-response","158","195032","0.0-6.0-2.25","13","","","","","rectangles","null","null","","","catch","sh","l","sw","233","179","239","267","155","224","spektor","null","null","null","null","null","null","null","null","null","null","null","","180","200","260","200","36000","52000","[1,2]"
"","canvas-keyboard-response","159","195196","0.0-6.0-3.25","13","","","","","clear_screen","null","null","","","catch","sh","l","sw","233","179","239","267","155","224","spektor","null","null","null","null","null","null","null","null","null","null","null","","180","200","260","200","36000","52000","[1,2]"
"","canvas-keyboard-response","160","196015","0.0-6.0-4.25","13","","","","","make choice","806","2","","","catch","sh","l","sw","233","179","239","267","155","224","spektor","null","null","null","null","null","null","null","null","null","null","null","","180","200","260","200","36000","52000","[1,2]"
"","canvas-keyboard-response","161","196174","0.0-6.0-5.25","13","","","","","clear_screen","null","null","","","catch","sh","l","sw","233","179","239","267","155","224","spektor","null","null","null","null","null","null","null","null","null","null","null","","180","200","260","200","36000","52000","[1,2]"
"","canvas-keyboard-response","162","196376","0.0-6.0-0.26","13","","","","","pre trial waiting period","null","null","","","catch","sh","l","sw","224","149","204","244","204","173","spektor","null","null","null","null","null","null","null","null","null","null","null","","180","200","260","200","36000","52000","[1,2]"
"","canvas-keyboard-response","163","196535","0.0-6.0-1.26","13","","","","","clear_screen","null","null","","","catch","sh","l","sw","224","149","204","244","204","173","spektor","null","null","null","null","null","null","null","null","null","null","null","","180","200","260","200","36000","52000","[1,2]"
"","canvas-keyboard-response","164","197876","0.0-6.0-2.26","13","","","","","rectangles","null","null","","","catch","sh","l","sw","224","149","204","244","204","173","spektor","null","null","null","null","null","null","null","null","null","null","null","","180","200","260","200","36000","52000","[1,2]"
"","canvas-keyboard-response","165","198039","0.0-6.0-3.26","13","","","","","clear_screen","null","null","","","catch","sh","l","sw","224","149","204","244","204","173","spektor","null","null","null","null","null","null","null","null","null","null","null","","180","200","260","200","36000","52000","[1,2]"
"","canvas-keyboard-response","166","198703","0.0-6.0-4.26","13","","","","","make choice","653","2","","","catch","sh","l","sw","224","149","204","244","204","173","spektor","null","null","null","null","null","null","null","null","null","null","null","","180","200","260","200","36000","52000","[1,2]"
"","canvas-keyboard-response","167","198862","0.0-6.0-5.26","13","","","","","clear_screen","null","null","","","catch","sh","l","sw","224","149","204","244","204","173","spektor","null","null","null","null","null","null","null","null","null","null","null","","180","200","260","200","36000","52000","[1,2]"
"","canvas-keyboard-response","168","199063","0.0-6.0-0.27","13","","","","","pre trial waiting period","null","null","","","critical","t","d","c","240","164","227.1683","158.0083","164","240","trueblood","0.09","w","240","164","164","240","227.1683","158.0083","39360","39360","35894.4834","dc","null","null","null","null","null","null","[2,3]"
"","canvas-keyboard-response","169","199226","0.0-6.0-1.27","13","","","","","clear_screen","null","null","","","critical","t","d","c","240","164","227.1683","158.0083","164","240","trueblood","0.09","w","240","164","164","240","227.1683","158.0083","39360","39360","35894.4834","dc","null","null","null","null","null","null","[2,3]"
"","canvas-keyboard-response","170","200562","0.0-6.0-2.27","13","","","","","rectangles","null","null","","","critical","t","d","c","240","164","227.1683","158.0083","164","240","trueblood","0.09","w","240","164","164","240","227.1683","158.0083","39360","39360","35894.4834","dc","null","null","null","null","null","null","[2,3]"
"","canvas-keyboard-response","171","200722","0.0-6.0-3.27","13","","","","","clear_screen","null","null","","","critical","t","d","c","240","164","227.1683","158.0083","164","240","trueblood","0.09","w","240","164","164","240","227.1683","158.0083","39360","39360","35894.4834","dc","null","null","null","null","null","null","[2,3]"
"","canvas-keyboard-response","172","201576","0.0-6.0-4.27","13","","","","","make choice","842","3","","","critical","t","d","c","240","164","227.1683","158.0083","164","240","trueblood","0.09","w","240","164","164","240","227.1683","158.0083","39360","39360","35894.4834","dc","null","null","null","null","null","null","[2,3]"
"","canvas-keyboard-response","173","201735","0.0-6.0-5.27","13","","","","","clear_screen","null","null","","","critical","t","d","c","240","164","227.1683","158.0083","164","240","trueblood","0.09","w","240","164","164","240","227.1683","158.0083","39360","39360","35894.4834","dc","null","null","null","null","null","null","[2,3]"
"","canvas-keyboard-response","174","201938","0.0-6.0-0.28","13","","","","","pre trial waiting period","null","null","","","critical","d","c","t","154.6796","220.0396","240","164","164","240","trueblood","0.14","h","164","240","240","164","154.6796","220.0396","39360","39360","34035.6388","td","null","null","null","null","null","null","[3,1]"
"","canvas-keyboard-response","175","202101","0.0-6.0-1.28","13","","","","","clear_screen","null","null","","","critical","d","c","t","154.6796","220.0396","240","164","164","240","trueblood","0.14","h","164","240","240","164","154.6796","220.0396","39360","39360","34035.6388","td","null","null","null","null","null","null","[3,1]"
"","canvas-keyboard-response","176","203436","0.0-6.0-2.28","13","","","","","rectangles","null","null","","","critical","d","c","t","154.6796","220.0396","240","164","164","240","trueblood","0.14","h","164","240","240","164","154.6796","220.0396","39360","39360","34035.6388","td","null","null","null","null","null","null","[3,1]"
"","canvas-keyboard-response","177","203597","0.0-6.0-3.28","13","","","","","clear_screen","null","null","","","critical","d","c","t","154.6796","220.0396","240","164","164","240","trueblood","0.14","h","164","240","240","164","154.6796","220.0396","39360","39360","34035.6388","td","null","null","null","null","null","null","[3,1]"
"","canvas-keyboard-response","178","204431","0.0-6.0-4.28","13","","","","","make choice","823","1","","","critical","d","c","t","154.6796","220.0396","240","164","164","240","trueblood","0.14","h","164","240","240","164","154.6796","220.0396","39360","39360","34035.6388","td","null","null","null","null","null","null","[3,1]"
"","canvas-keyboard-response","179","204591","0.0-6.0-5.28","13","","","","","clear_screen","null","null","","","critical","d","c","t","154.6796","220.0396","240","164","164","240","trueblood","0.14","h","164","240","240","164","154.6796","220.0396","39360","39360","34035.6388","td","null","null","null","null","null","null","[3,1]"
"","canvas-keyboard-response","180","204794","0.0-6.0-0.29","13","","","","","pre trial waiting period","null","null","","","critical","c","d","t","240","164","162.6685","237.1485","164","240","trueblood","0.02","h","164","240","240","164","162.6685","237.1485","39360","39360","38576.5967","td","null","null","null","null","null","null","[3,2]"
"","canvas-keyboard-response","181","204954","0.0-6.0-1.29","13","","","","","clear_screen","null","null","","","critical","c","d","t","240","164","162.6685","237.1485","164","240","trueblood","0.02","h","164","240","240","164","162.6685","237.1485","39360","39360","38576.5967","td","null","null","null","null","null","null","[3,2]"
"","canvas-keyboard-response","182","206292","0.0-6.0-2.29","13","","","","","rectangles","null","null","","","critical","c","d","t","240","164","162.6685","237.1485","164","240","trueblood","0.02","h","164","240","240","164","162.6685","237.1485","39360","39360","38576.5967","td","null","null","null","null","null","null","[3,2]"
"","canvas-keyboard-response","183","206451","0.0-6.0-3.29","13","","","","","clear_screen","null","null","","","critical","c","d","t","240","164","162.6685","237.1485","164","240","trueblood","0.02","h","164","240","240","164","162.6685","237.1485","39360","39360","38576.5967","td","null","null","null","null","null","null","[3,2]"
"","canvas-keyboard-response","184","207287","0.0-6.0-4.29","13","","","","","make choice","825","3","","","critical","c","d","t","240","164","162.6685","237.1485","164","240","trueblood","0.02","h","164","240","240","164","162.6685","237.1485","39360","39360","38576.5967","td","null","null","null","null","null","null","[3,2]"
"","canvas-keyboard-response","185","207449","0.0-6.0-5.29","13","","","","","clear_screen","null","null","","","critical","c","d","t","240","164","162.6685","237.1485","164","240","trueblood","0.02","h","164","240","240","164","162.6685","237.1485","39360","39360","38576.5967","td","null","null","null","null","null","null","[3,2]"
"","canvas-keyboard-response","186","207651","0.0-6.0-0.30","13","","","","","pre trial waiting period","null","null","","","critical","d","t","c","232.8713","160.6713","240","164","164","240","spektor","0.05","w","240","164","164","240","232.8713","160.6713","39360","39360","37415.7294","dc","null","null","null","null","null","null","[1,3]"
"","canvas-keyboard-response","187","207813","0.0-6.0-1.30","13","","","","","clear_screen","null","null","","","critical","d","t","c","232.8713","160.6713","240","164","164","240","spektor","0.05","w","240","164","164","240","232.8713","160.6713","39360","39360","37415.7294","dc","null","null","null","null","null","null","[1,3]"
"","canvas-keyboard-response","188","209149","0.0-6.0-2.30","13","","","","","rectangles","null","null","","","critical","d","t","c","232.8713","160.6713","240","164","164","240","spektor","0.05","w","240","164","164","240","232.8713","160.6713","39360","39360","37415.7294","dc","null","null","null","null","null","null","[1,3]"
"","canvas-keyboard-response","189","209309","0.0-6.0-3.30","13","","","","","clear_screen","null","null","","","critical","d","t","c","232.8713","160.6713","240","164","164","240","spektor","0.05","w","240","164","164","240","232.8713","160.6713","39360","39360","37415.7294","dc","null","null","null","null","null","null","[1,3]"
"","canvas-keyboard-response","190","209712","0.0-6.0-4.30","13","","","","","make choice","393","3","","","critical","d","t","c","232.8713","160.6713","240","164","164","240","spektor","0.05","w","240","164","164","240","232.8713","160.6713","39360","39360","37415.7294","dc","null","null","null","null","null","null","[1,3]"
"","canvas-keyboard-response","191","209873","0.0-6.0-5.30","13","","","","","clear_screen","null","null","","","critical","d","t","c","232.8713","160.6713","240","164","164","240","spektor","0.05","w","240","164","164","240","232.8713","160.6713","39360","39360","37415.7294","dc","null","null","null","null","null","null","[1,3]"
"","canvas-keyboard-response","192","210074","0.0-6.0-0.31","13","","","","","pre trial waiting period","null","null","","","catch","l","sh","sw","165","230","178","146","192","165","spektor","null","null","null","null","null","null","null","null","null","null","null","","180","200","260","200","36000","52000","[1,3]"
"","canvas-keyboard-response","193","210234","0.0-6.0-1.31","13","","","","","clear_screen","null","null","","","catch","l","sh","sw","165","230","178","146","192","165","spektor","null","null","null","null","null","null","null","null","null","null","null","","180","200","260","200","36000","52000","[1,3]"
"","canvas-keyboard-response","194","211569","0.0-6.0-2.31","13","","","","","rectangles","null","null","","","catch","l","sh","sw","165","230","178","146","192","165","spektor","null","null","null","null","null","null","null","null","null","null","null","","180","200","260","200","36000","52000","[1,3]"
"","canvas-keyboard-response","195","211728","0.0-6.0-3.31","13","","","","","clear_screen","null","null","","","catch","l","sh","sw","165","230","178","146","192","165","spektor","null","null","null","null","null","null","null","null","null","null","null","","180","200","260","200","36000","52000","[1,3]"
"","canvas-keyboard-response","196","212112","0.0-6.0-4.31","13","","","","","make choice","373","1","","","catch","l","sh","sw","165","230","178","146","192","165","spektor","null","null","null","null","null","null","null","null","null","null","null","","180","200","260","200","36000","52000","[1,3]"
"","canvas-keyboard-response","197","212270","0.0-6.0-5.31","13","","","","","clear_screen","null","null","","","catch","l","sh","sw","165","230","178","146","192","165","spektor","null","null","null","null","null","null","null","null","null","null","null","","180","200","260","200","36000","52000","[1,3]"
"","canvas-keyboard-response","198","212471","0.0-6.0-0.32","13","","","","","pre trial waiting period","null","null","","","critical","d","t","c","227.1683","158.0083","240","164","164","240","spektor","0.09","w","240","164","164","240","227.1683","158.0083","39360","39360","35894.4834","td","null","null","null","null","null","null","[2,1]"
"","canvas-keyboard-response","199","212633","0.0-6.0-1.32","13","","","","","clear_screen","null","null","","","critical","d","t","c","227.1683","158.0083","240","164","164","240","spektor","0.09","w","240","164","164","240","227.1683","158.0083","39360","39360","35894.4834","td","null","null","null","null","null","null","[2,1]"
"","canvas-keyboard-response","200","213971","0.0-6.0-2.32","13","","","","","rectangles","null","null","","","critical","d","t","c","227.1683","158.0083","240","164","164","240","spektor","0.09","w","240","164","164","240","227.1683","158.0083","39360","39360","35894.4834","td","null","null","null","null","null","null","[2,1]"
"","canvas-keyboard-response","201","214132","0.0-6.0-3.32","13","","","","","clear_screen","null","null","","","critical","d","t","c","227.1683","158.0083","240","164","164","240","spektor","0.09","w","240","164","164","240","227.1683","158.0083","39360","39360","35894.4834","td","null","null","null","null","null","null","[2,1]"
"","canvas-keyboard-response","202","215271","0.0-6.0-4.32","13","","","","","make choice","1130","1","","","critical","d","t","c","227.1683","158.0083","240","164","164","240","spektor","0.09","w","240","164","164","240","227.1683","158.0083","39360","39360","35894.4834","td","null","null","null","null","null","null","[2,1]"
"","canvas-keyboard-response","203","215433","0.0-6.0-5.32","13","","","","","clear_screen","null","null","","","critical","d","t","c","227.1683","158.0083","240","164","164","240","spektor","0.09","w","240","164","164","240","227.1683","158.0083","39360","39360","35894.4834","td","null","null","null","null","null","null","[2,1]"
"","canvas-keyboard-response","204","215633","0.0-6.0-0.33","13","","","","","pre trial waiting period","null","null","","","critical","d","c","t","164","240","240","164","164","240","spektor","0","h","164","240","240","164","164","240","39360","39360","39360","tc","null","null","null","null","null","null","[3,2]"
"","canvas-keyboard-response","205","215798","0.0-6.0-1.33","13","","","","","clear_screen","null","null","","","critical","d","c","t","164","240","240","164","164","240","spektor","0","h","164","240","240","164","164","240","39360","39360","39360","tc","null","null","null","null","null","null","[3,2]"
"","canvas-keyboard-response","206","217132","0.0-6.0-2.33","13","","","","","rectangles","null","null","","","critical","d","c","t","164","240","240","164","164","240","spektor","0","h","164","240","240","164","164","240","39360","39360","39360","tc","null","null","null","null","null","null","[3,2]"
"","canvas-keyboard-response","207","217292","0.0-6.0-3.33","13","","","","","clear_screen","null","null","","","critical","d","c","t","164","240","240","164","164","240","spektor","0","h","164","240","240","164","164","240","39360","39360","39360","tc","null","null","null","null","null","null","[3,2]"
"","canvas-keyboard-response","208","217679","0.0-6.0-4.33","13","","","","","make choice","379","3","","","critical","d","c","t","164","240","240","164","164","240","spektor","0","h","164","240","240","164","164","240","39360","39360","39360","tc","null","null","null","null","null","null","[3,2]"
"","canvas-keyboard-response","209","217839","0.0-6.0-5.33","13","","","","","clear_screen","null","null","","","critical","d","c","t","164","240","240","164","164","240","spektor","0","h","164","240","240","164","164","240","39360","39360","39360","tc","null","null","null","null","null","null","[3,2]"
"","canvas-keyboard-response","210","218040","0.0-6.0-0.34","13","","","","","pre trial waiting period","null","null","","","catch","sw","sh","l","180","200","175","169","237","212","spektor","null","null","null","null","null","null","null","null","null","null","null","","180","200","260","200","36000","52000","[1,3]"
"","canvas-keyboard-response","211","218201","0.0-6.0-1.34","13","","","","","clear_screen","null","null","","","catch","sw","sh","l","180","200","175","169","237","212","spektor","null","null","null","null","null","null","null","null","null","null","null","","180","200","260","200","36000","52000","[1,3]"
"","canvas-keyboard-response","212","219540","0.0-6.0-2.34","13","","","","","rectangles","null","null","","","catch","sw","sh","l","180","200","175","169","237","212","spektor","null","null","null","null","null","null","null","null","null","null","null","","180","200","260","200","36000","52000","[1,3]"
"","canvas-keyboard-response","213","219700","0.0-6.0-3.34","13","","","","","clear_screen","null","null","","","catch","sw","sh","l","180","200","175","169","237","212","spektor","null","null","null","null","null","null","null","null","null","null","null","","180","200","260","200","36000","52000","[1,3]"
"","canvas-keyboard-response","214","220175","0.0-6.0-4.34","13","","","","","make choice","461","3","","","catch","sw","sh","l","180","200","175","169","237","212","spektor","null","null","null","null","null","null","null","null","null","null","null","","180","200","260","200","36000","52000","[1,3]"
"","canvas-keyboard-response","215","220335","0.0-6.0-5.34","13","","","","","clear_screen","null","null","","","catch","sw","sh","l","180","200","175","169","237","212","spektor","null","null","null","null","null","null","null","null","null","null","null","","180","200","260","200","36000","52000","[1,3]"
"","canvas-keyboard-response","216","220535","0.0-6.0-0.35","13","","","","","pre trial waiting period","null","null","","","critical","c","d","t","164","240","237.1485","162.6685","240","164","spektor","0.02","w","240","164","164","240","237.1485","162.6685","39360","39360","38576.5967","td","null","null","null","null","null","null","[3,2]"
"","canvas-keyboard-response","217","220695","0.0-6.0-1.35","13","","","","","clear_screen","null","null","","","critical","c","d","t","164","240","237.1485","162.6685","240","164","spektor","0.02","w","240","164","164","240","237.1485","162.6685","39360","39360","38576.5967","td","null","null","null","null","null","null","[3,2]"
"","canvas-keyboard-response","218","222031","0.0-6.0-2.35","13","","","","","rectangles","null","null","","","critical","c","d","t","164","240","237.1485","162.6685","240","164","spektor","0.02","w","240","164","164","240","237.1485","162.6685","39360","39360","38576.5967","td","null","null","null","null","null","null","[3,2]"
"","canvas-keyboard-response","219","222193","0.0-6.0-3.35","13","","","","","clear_screen","null","null","","","critical","c","d","t","164","240","237.1485","162.6685","240","164","spektor","0.02","w","240","164","164","240","237.1485","162.6685","39360","39360","38576.5967","td","null","null","null","null","null","null","[3,2]"
"","canvas-keyboard-response","220","223136","0.0-6.0-4.35","13","","","","","make choice","934","2","","","critical","c","d","t","164","240","237.1485","162.6685","240","164","spektor","0.02","w","240","164","164","240","237.1485","162.6685","39360","39360","38576.5967","td","null","null","null","null","null","null","[3,2]"
"","canvas-keyboard-response","221","223296","0.0-6.0-5.35","13","","","","","clear_screen","null","null","","","critical","c","d","t","164","240","237.1485","162.6685","240","164","spektor","0.02","w","240","164","164","240","237.1485","162.6685","39360","39360","38576.5967","td","null","null","null","null","null","null","[3,2]"
"","canvas-keyboard-response","222","223497","0.0-6.0-0.36","13","","","","","pre trial waiting period","null","null","","","critical","c","d","t","240","164","164","240","164","240","spektor","0","h","164","240","240","164","164","240","39360","39360","39360","td","null","null","null","null","null","null","[3,2]"
"","canvas-keyboard-response","223","223658","0.0-6.0-1.36","13","","","","","clear_screen","null","null","","","critical","c","d","t","240","164","164","240","164","240","spektor","0","h","164","240","240","164","164","240","39360","39360","39360","td","null","null","null","null","null","null","[3,2]"
"","canvas-keyboard-response","224","224995","0.0-6.0-2.36","13","","","","","rectangles","null","null","","","critical","c","d","t","240","164","164","240","164","240","spektor","0","h","164","240","240","164","164","240","39360","39360","39360","td","null","null","null","null","null","null","[3,2]"
"","canvas-keyboard-response","225","225154","0.0-6.0-3.36","13","","","","","clear_screen","null","null","","","critical","c","d","t","240","164","164","240","164","240","spektor","0","h","164","240","240","164","164","240","39360","39360","39360","td","null","null","null","null","null","null","[3,2]"
"","canvas-keyboard-response","226","225847","0.0-6.0-4.36","13","","","","","make choice","684","3","","","critical","c","d","t","240","164","164","240","164","240","spektor","0","h","164","240","240","164","164","240","39360","39360","39360","td","null","null","null","null","null","null","[3,2]"
"","canvas-keyboard-response","227","226005","0.0-6.0-5.36","13","","","","","clear_screen","null","null","","","critical","c","d","t","240","164","164","240","164","240","spektor","0","h","164","240","240","164","164","240","39360","39360","39360","td","null","null","null","null","null","null","[3,2]"
"","canvas-keyboard-response","228","226207","0.0-6.0-0.37","13","","","","","pre trial waiting period","null","null","","","critical","t","d","c","164","240","162.6685","237.1485","240","164","spektor","0.02","h","164","240","240","164","162.6685","237.1485","39360","39360","38576.5967","tc","null","null","null","null","null","null","[1,3]"
"","canvas-keyboard-response","229","226367","0.0-6.0-1.37","13","","","","","clear_screen","null","null","","","critical","t","d","c","164","240","162.6685","237.1485","240","164","spektor","0.02","h","164","240","240","164","162.6685","237.1485","39360","39360","38576.5967","tc","null","null","null","null","null","null","[1,3]"
"","canvas-keyboard-response","230","227704","0.0-6.0-2.37","13","","","","","rectangles","null","null","","","critical","t","d","c","164","240","162.6685","237.1485","240","164","spektor","0.02","h","164","240","240","164","162.6685","237.1485","39360","39360","38576.5967","tc","null","null","null","null","null","null","[1,3]"
"","canvas-keyboard-response","231","227868","0.0-6.0-3.37","13","","","","","clear_screen","null","null","","","critical","t","d","c","164","240","162.6685","237.1485","240","164","spektor","0.02","h","164","240","240","164","162.6685","237.1485","39360","39360","38576.5967","tc","null","null","null","null","null","null","[1,3]"
"","canvas-keyboard-response","232","228360","0.0-6.0-4.37","13","","","","","make choice","477","3","","","critical","t","d","c","164","240","162.6685","237.1485","240","164","spektor","0.02","h","164","240","240","164","162.6685","237.1485","39360","39360","38576.5967","tc","null","null","null","null","null","null","[1,3]"
"","canvas-keyboard-response","233","228521","0.0-6.0-5.37","13","","","","","clear_screen","null","null","","","critical","t","d","c","164","240","162.6685","237.1485","240","164","spektor","0.02","h","164","240","240","164","162.6685","237.1485","39360","39360","38576.5967","tc","null","null","null","null","null","null","[1,3]"
"","canvas-keyboard-response","234","228722","0.0-6.0-0.38","13","","","","","pre trial waiting period","null","null","","","catch","sh","l","sw","191","154","221","282","219","238","trueblood","null","null","null","null","null","null","null","null","null","null","null","","180","200","260","200","36000","52000","[1,2]"
"","canvas-keyboard-response","235","228884","0.0-6.0-1.38","13","","","","","clear_screen","null","null","","","catch","sh","l","sw","191","154","221","282","219","238","trueblood","null","null","null","null","null","null","null","null","null","null","null","","180","200","260","200","36000","52000","[1,2]"
"","canvas-keyboard-response","236","230224","0.0-6.0-2.38","13","","","","","rectangles","null","null","","","catch","sh","l","sw","191","154","221","282","219","238","trueblood","null","null","null","null","null","null","null","null","null","null","null","","180","200","260","200","36000","52000","[1,2]"
"","canvas-keyboard-response","237","230388","0.0-6.0-3.38","13","","","","","clear_screen","null","null","","","catch","sh","l","sw","191","154","221","282","219","238","trueblood","null","null","null","null","null","null","null","null","null","null","null","","180","200","260","200","36000","52000","[1,2]"
"","canvas-keyboard-response","238","230784","0.0-6.0-4.38","13","","","","","make choice","385","2","","","catch","sh","l","sw","191","154","221","282","219","238","trueblood","null","null","null","null","null","null","null","null","null","null","null","","180","200","260","200","36000","52000","[1,2]"
"","canvas-keyboard-response","239","230942","0.0-6.0-5.38","13","","","","","clear_screen","null","null","","","catch","sh","l","sw","191","154","221","282","219","238","trueblood","null","null","null","null","null","null","null","null","null","null","null","","180","200","260","200","36000","52000","[1,2]"
"","canvas-keyboard-response","240","231143","0.0-6.0-0.39","13","","","","","pre trial waiting period","null","null","","","critical","d","c","t","154.6796","220.0396","240","164","164","240","spektor","0.14","h","164","240","240","164","154.6796","220.0396","39360","39360","34035.6388","tc","null","null","null","null","null","null","[3,2]"
"","canvas-keyboard-response","241","231307","0.0-6.0-1.39","13","","","","","clear_screen","null","null","","","critical","d","c","t","154.6796","220.0396","240","164","164","240","spektor","0.14","h","164","240","240","164","154.6796","220.0396","39360","39360","34035.6388","tc","null","null","null","null","null","null","[3,2]"
"","canvas-keyboard-response","242","232644","0.0-6.0-2.39","13","","","","","rectangles","null","null","","","critical","d","c","t","154.6796","220.0396","240","164","164","240","spektor","0.14","h","164","240","240","164","154.6796","220.0396","39360","39360","34035.6388","tc","null","null","null","null","null","null","[3,2]"
"","canvas-keyboard-response","243","232807","0.0-6.0-3.39","13","","","","","clear_screen","null","null","","","critical","d","c","t","154.6796","220.0396","240","164","164","240","spektor","0.14","h","164","240","240","164","154.6796","220.0396","39360","39360","34035.6388","tc","null","null","null","null","null","null","[3,2]"
"","canvas-keyboard-response","244","233399","0.0-6.0-4.39","13","","","","","make choice","584","3","","","critical","d","c","t","154.6796","220.0396","240","164","164","240","spektor","0.14","h","164","240","240","164","154.6796","220.0396","39360","39360","34035.6388","tc","null","null","null","null","null","null","[3,2]"
"","canvas-keyboard-response","245","233561","0.0-6.0-5.39","13","","","","","clear_screen","null","null","","","critical","d","c","t","154.6796","220.0396","240","164","164","240","spektor","0.14","h","164","240","240","164","154.6796","220.0396","39360","39360","34035.6388","tc","null","null","null","null","null","null","[3,2]"
"","canvas-keyboard-response","246","233761","0.0-6.0-0.40","13","","","","","pre trial waiting period","null","null","","","critical","c","d","t","164","240","220.0396","154.6796","240","164","trueblood","0.14","w","240","164","164","240","220.0396","154.6796","39360","39360","34035.6388","dc","null","null","null","null","null","null","[2,1]"
"","canvas-keyboard-response","247","233923","0.0-6.0-1.40","13","","","","","clear_screen","null","null","","","critical","c","d","t","164","240","220.0396","154.6796","240","164","trueblood","0.14","w","240","164","164","240","220.0396","154.6796","39360","39360","34035.6388","dc","null","null","null","null","null","null","[2,1]"
"","canvas-keyboard-response","248","235257","0.0-6.0-2.40","13","","","","","rectangles","null","null","","","critical","c","d","t","164","240","220.0396","154.6796","240","164","trueblood","0.14","w","240","164","164","240","220.0396","154.6796","39360","39360","34035.6388","dc","null","null","null","null","null","null","[2,1]"
"","canvas-keyboard-response","249","235420","0.0-6.0-3.40","13","","","","","clear_screen","null","null","","","critical","c","d","t","164","240","220.0396","154.6796","240","164","trueblood","0.14","w","240","164","164","240","220.0396","154.6796","39360","39360","34035.6388","dc","null","null","null","null","null","null","[2,1]"
"","canvas-keyboard-response","250","235840","0.0-6.0-4.40","13","","","","","make choice","409","1","","","critical","c","d","t","164","240","220.0396","154.6796","240","164","trueblood","0.14","w","240","164","164","240","220.0396","154.6796","39360","39360","34035.6388","dc","null","null","null","null","null","null","[2,1]"
"","canvas-keyboard-response","251","236001","0.0-6.0-5.40","13","","","","","clear_screen","null","null","","","critical","c","d","t","164","240","220.0396","154.6796","240","164","trueblood","0.14","w","240","164","164","240","220.0396","154.6796","39360","39360","34035.6388","dc","null","null","null","null","null","null","[2,1]"
"","canvas-keyboard-response","252","236202","0.0-6.0-0.41","13","","","","","pre trial waiting period","null","null","","","critical","d","c","t","164","240","240","164","164","240","spektor","0","h","164","240","240","164","164","240","39360","39360","39360","dc","null","null","null","null","null","null","[1,2]"
"","canvas-keyboard-response","253","236362","0.0-6.0-1.41","13","","","","","clear_screen","null","null","","","critical","d","c","t","164","240","240","164","164","240","spektor","0","h","164","240","240","164","164","240","39360","39360","39360","dc","null","null","null","null","null","null","[1,2]"
"","canvas-keyboard-response","254","237699","0.0-6.0-2.41","13","","","","","rectangles","null","null","","","critical","d","c","t","164","240","240","164","164","240","spektor","0","h","164","240","240","164","164","240","39360","39360","39360","dc","null","null","null","null","null","null","[1,2]"
"","canvas-keyboard-response","255","237860","0.0-6.0-3.41","13","","","","","clear_screen","null","null","","","critical","d","c","t","164","240","240","164","164","240","spektor","0","h","164","240","240","164","164","240","39360","39360","39360","dc","null","null","null","null","null","null","[1,2]"
"","canvas-keyboard-response","256","238936","0.0-6.0-4.41","13","","","","","make choice","1066","2","","","critical","d","c","t","164","240","240","164","164","240","spektor","0","h","164","240","240","164","164","240","39360","39360","39360","dc","null","null","null","null","null","null","[1,2]"
"","canvas-keyboard-response","257","239094","0.0-6.0-5.41","13","","","","","clear_screen","null","null","","","critical","d","c","t","164","240","240","164","164","240","spektor","0","h","164","240","240","164","164","240","39360","39360","39360","dc","null","null","null","null","null","null","[1,2]"
"","canvas-keyboard-response","258","239295","0.0-6.0-0.42","13","","","","","pre trial waiting period","null","null","","","catch","l","sh","sw","178","245","237","142","165","169","trueblood","null","null","null","null","null","null","null","null","null","null","null","","180","200","260","200","36000","52000","[1,3]"
"","canvas-keyboard-response","259","239457","0.0-6.0-1.42","13","","","","","clear_screen","null","null","","","catch","l","sh","sw","178","245","237","142","165","169","trueblood","null","null","null","null","null","null","null","null","null","null","null","","180","200","260","200","36000","52000","[1,3]"
"","canvas-keyboard-response","260","240796","0.0-6.0-2.42","13","","","","","rectangles","null","null","","","catch","l","sh","sw","178","245","237","142","165","169","trueblood","null","null","null","null","null","null","null","null","null","null","null","","180","200","260","200","36000","52000","[1,3]"
"","canvas-keyboard-response","261","240956","0.0-6.0-3.42","13","","","","","clear_screen","null","null","","","catch","l","sh","sw","178","245","237","142","165","169","trueblood","null","null","null","null","null","null","null","null","null","null","null","","180","200","260","200","36000","52000","[1,3]"
"","canvas-keyboard-response","262","241632","0.0-6.0-4.42","13","","","","","make choice","662","1","","","catch","l","sh","sw","178","245","237","142","165","169","trueblood","null","null","null","null","null","null","null","null","null","null","null","","180","200","260","200","36000","52000","[1,3]"
"","canvas-keyboard-response","263","241791","0.0-6.0-5.42","13","","","","","clear_screen","null","null","","","catch","l","sh","sw","178","245","237","142","165","169","trueblood","null","null","null","null","null","null","null","null","null","null","null","","180","200","260","200","36000","52000","[1,3]"
"","canvas-keyboard-response","264","241992","0.0-6.0-0.43","13","","","","","pre trial waiting period","null","null","","","critical","t","c","d","240","164","164","240","220.0396","154.6796","trueblood","0.14","w","240","164","164","240","220.0396","154.6796","39360","39360","34035.6388","td","null","null","null","null","null","null","[1,3]"
"","canvas-keyboard-response","265","242153","0.0-6.0-1.43","13","","","","","clear_screen","null","null","","","critical","t","c","d","240","164","164","240","220.0396","154.6796","trueblood","0.14","w","240","164","164","240","220.0396","154.6796","39360","39360","34035.6388","td","null","null","null","null","null","null","[1,3]"
"","canvas-keyboard-response","266","243489","0.0-6.0-2.43","13","","","","","rectangles","null","null","","","critical","t","c","d","240","164","164","240","220.0396","154.6796","trueblood","0.14","w","240","164","164","240","220.0396","154.6796","39360","39360","34035.6388","td","null","null","null","null","null","null","[1,3]"
"","canvas-keyboard-response","267","243649","0.0-6.0-3.43","13","","","","","clear_screen","null","null","","","critical","t","c","d","240","164","164","240","220.0396","154.6796","trueblood","0.14","w","240","164","164","240","220.0396","154.6796","39360","39360","34035.6388","td","null","null","null","null","null","null","[1,3]"
"","canvas-keyboard-response","268","244488","0.0-6.0-4.43","13","","","","","make choice","829","1","","","critical","t","c","d","240","164","164","240","220.0396","154.6796","trueblood","0.14","w","240","164","164","240","220.0396","154.6796","39360","39360","34035.6388","td","null","null","null","null","null","null","[1,3]"
"","canvas-keyboard-response","269","244646","0.0-6.0-5.43","13","","","","","clear_screen","null","null","","","critical","t","c","d","240","164","164","240","220.0396","154.6796","trueblood","0.14","w","240","164","164","240","220.0396","154.6796","39360","39360","34035.6388","td","null","null","null","null","null","null","[1,3]"
"","canvas-keyboard-response","270","244848","0.0-6.0-0.44","13","","","","","pre trial waiting period","null","null","","","catch","sw","sh","l","180","200","163","155","248","174","spektor","null","null","null","null","null","null","null","null","null","null","null","","180","200","260","200","36000","52000","[1,3]"
"","canvas-keyboard-response","271","245011","0.0-6.0-1.44","13","","","","","clear_screen","null","null","","","catch","sw","sh","l","180","200","163","155","248","174","spektor","null","null","null","null","null","null","null","null","null","null","null","","180","200","260","200","36000","52000","[1,3]"
"","canvas-keyboard-response","272","246346","0.0-6.0-2.44","13","","","","","rectangles","null","null","","","catch","sw","sh","l","180","200","163","155","248","174","spektor","null","null","null","null","null","null","null","null","null","null","null","","180","200","260","200","36000","52000","[1,3]"
"","canvas-keyboard-response","273","246506","0.0-6.0-3.44","13","","","","","clear_screen","null","null","","","catch","sw","sh","l","180","200","163","155","248","174","spektor","null","null","null","null","null","null","null","null","null","null","null","","180","200","260","200","36000","52000","[1,3]"
"","canvas-keyboard-response","274","247407","0.0-6.0-4.44","13","","","","","make choice","889","1","","","catch","sw","sh","l","180","200","163","155","248","174","spektor","null","null","null","null","null","null","null","null","null","null","null","","180","200","260","200","36000","52000","[1,3]"
"","canvas-keyboard-response","275","247566","0.0-6.0-5.44","13","","","","","clear_screen","null","null","","","catch","sw","sh","l","180","200","163","155","248","174","spektor","null","null","null","null","null","null","null","null","null","null","null","","180","200","260","200","36000","52000","[1,3]"
"","canvas-keyboard-response","276","247768","0.0-6.0-0.45","13","","","","","pre trial waiting period","null","null","","","critical","t","c","d","240","164","164","240","232.8713","160.6713","spektor","0.05","w","240","164","164","240","232.8713","160.6713","39360","39360","37415.7294","tc","null","null","null","null","null","null","[1,2]"
"","canvas-keyboard-response","277","247927","0.0-6.0-1.45","13","","","","","clear_screen","null","null","","","critical","t","c","d","240","164","164","240","232.8713","160.6713","spektor","0.05","w","240","164","164","240","232.8713","160.6713","39360","39360","37415.7294","tc","null","null","null","null","null","null","[1,2]"
"","canvas-keyboard-response","278","249267","0.0-6.0-2.45","13","","","","","rectangles","null","null","","","critical","t","c","d","240","164","164","240","232.8713","160.6713","spektor","0.05","w","240","164","164","240","232.8713","160.6713","39360","39360","37415.7294","tc","null","null","null","null","null","null","[1,2]"
"","canvas-keyboard-response","279","249429","0.0-6.0-3.45","13","","","","","clear_screen","null","null","","","critical","t","c","d","240","164","164","240","232.8713","160.6713","spektor","0.05","w","240","164","164","240","232.8713","160.6713","39360","39360","37415.7294","tc","null","null","null","null","null","null","[1,2]"
"","canvas-keyboard-response","280","249823","0.0-6.0-4.45","13","","","","","make choice","385","1","","","critical","t","c","d","240","164","164","240","232.8713","160.6713","spektor","0.05","w","240","164","164","240","232.8713","160.6713","39360","39360","37415.7294","tc","null","null","null","null","null","null","[1,2]"
"","canvas-keyboard-response","281","249985","0.0-6.0-5.45","13","","","","","clear_screen","null","null","","","critical","t","c","d","240","164","164","240","232.8713","160.6713","spektor","0.05","w","240","164","164","240","232.8713","160.6713","39360","39360","37415.7294","tc","null","null","null","null","null","null","[1,2]"
"","canvas-keyboard-response","282","250185","0.0-6.0-0.46","13","","","","","pre trial waiting period","null","null","","","catch","l","sh","sw","175","275","189","199","175","165","trueblood","null","null","null","null","null","null","null","null","null","null","null","","180","200","260","200","36000","52000","[1,3]"
"","canvas-keyboard-response","283","250346","0.0-6.0-1.46","13","","","","","clear_screen","null","null","","","catch","l","sh","sw","175","275","189","199","175","165","trueblood","null","null","null","null","null","null","null","null","null","null","null","","180","200","260","200","36000","52000","[1,3]"
"","canvas-keyboard-response","284","251683","0.0-6.0-2.46","13","","","","","rectangles","null","null","","","catch","l","sh","sw","175","275","189","199","175","165","trueblood","null","null","null","null","null","null","null","null","null","null","null","","180","200","260","200","36000","52000","[1,3]"
"","canvas-keyboard-response","285","251842","0.0-6.0-3.46","13","","","","","clear_screen","null","null","","","catch","l","sh","sw","175","275","189","199","175","165","trueblood","null","null","null","null","null","null","null","null","null","null","null","","180","200","260","200","36000","52000","[1,3]"
"","canvas-keyboard-response","286","252272","0.0-6.0-4.46","13","","","","","make choice","419","1","","","catch","l","sh","sw","175","275","189","199","175","165","trueblood","null","null","null","null","null","null","null","null","null","null","null","","180","200","260","200","36000","52000","[1,3]"
"","canvas-keyboard-response","287","252430","0.0-6.0-5.46","13","","","","","clear_screen","null","null","","","catch","l","sh","sw","175","275","189","199","175","165","trueblood","null","null","null","null","null","null","null","null","null","null","null","","180","200","260","200","36000","52000","[1,3]"
"","canvas-keyboard-response","288","252631","0.0-6.0-0.47","13","","","","","pre trial waiting period","null","null","","","catch","sw","l","sh","180","200","218","255","189","200","spektor","null","null","null","null","null","null","null","null","null","null","null","","180","200","260","200","36000","52000","[2,3]"
"","canvas-keyboard-response","289","252791","0.0-6.0-1.47","13","","","","","clear_screen","null","null","","","catch","sw","l","sh","180","200","218","255","189","200","spektor","null","null","null","null","null","null","null","null","null","null","null","","180","200","260","200","36000","52000","[2,3]"
"","canvas-keyboard-response","290","254131","0.0-6.0-2.47","13","","","","","rectangles","null","null","","","catch","sw","l","sh","180","200","218","255","189","200","spektor","null","null","null","null","null","null","null","null","null","null","null","","180","200","260","200","36000","52000","[2,3]"
"","canvas-keyboard-response","291","254291","0.0-6.0-3.47","13","","","","","clear_screen","null","null","","","catch","sw","l","sh","180","200","218","255","189","200","spektor","null","null","null","null","null","null","null","null","null","null","null","","180","200","260","200","36000","52000","[2,3]"
"","canvas-keyboard-response","292","254623","0.0-6.0-4.47","13","","","","","make choice","321","2","","","catch","sw","l","sh","180","200","218","255","189","200","spektor","null","null","null","null","null","null","null","null","null","null","null","","180","200","260","200","36000","52000","[2,3]"
"","canvas-keyboard-response","293","254783","0.0-6.0-5.47","13","","","","","clear_screen","null","null","","","catch","sw","l","sh","180","200","218","255","189","200","spektor","null","null","null","null","null","null","null","null","null","null","null","","180","200","260","200","36000","52000","[2,3]"
"","canvas-keyboard-response","294","254983","0.0-6.0-0.48","13","","","","","pre trial waiting period","null","null","","","catch","sw","sh","l","180","200","204","170","271","166","trueblood","null","null","null","null","null","null","null","null","null","null","null","","180","200","260","200","36000","52000","[2,3]"
"","canvas-keyboard-response","295","255138","0.0-6.0-1.48","13","","","","","clear_screen","null","null","","","catch","sw","sh","l","180","200","204","170","271","166","trueblood","null","null","null","null","null","null","null","null","null","null","null","","180","200","260","200","36000","52000","[2,3]"
"","canvas-keyboard-response","296","256473","0.0-6.0-2.48","13","","","","","rectangles","null","null","","","catch","sw","sh","l","180","200","204","170","271","166","trueblood","null","null","null","null","null","null","null","null","null","null","null","","180","200","260","200","36000","52000","[2,3]"
"","canvas-keyboard-response","297","256636","0.0-6.0-3.48","13","","","","","clear_screen","null","null","","","catch","sw","sh","l","180","200","204","170","271","166","trueblood","null","null","null","null","null","null","null","null","null","null","null","","180","200","260","200","36000","52000","[2,3]"
"","canvas-keyboard-response","298","257120","0.0-6.0-4.48","13","","","","","make choice","469","3","","","catch","sw","sh","l","180","200","204","170","271","166","trueblood","null","null","null","null","null","null","null","null","null","null","null","","180","200","260","200","36000","52000","[2,3]"
"","canvas-keyboard-response","299","257279","0.0-6.0-5.48","13","","","","","clear_screen","null","null","","","catch","sw","sh","l","180","200","204","170","271","166","trueblood","null","null","null","null","null","null","null","null","null","null","null","","180","200","260","200","36000","52000","[2,3]"
"","canvas-keyboard-response","300","257479","0.0-6.0-0.49","13","","","","","pre trial waiting period","null","null","","","critical","t","c","d","164","240","240","164","162.6685","237.1485","trueblood","0.02","h","164","240","240","164","162.6685","237.1485","39360","39360","38576.5967","dc","null","null","null","null","null","null","[3,2]"
"","canvas-keyboard-response","301","257639","0.0-6.0-1.49","13","","","","","clear_screen","null","null","","","critical","t","c","d","164","240","240","164","162.6685","237.1485","trueblood","0.02","h","164","240","240","164","162.6685","237.1485","39360","39360","38576.5967","dc","null","null","null","null","null","null","[3,2]"
"","canvas-keyboard-response","302","258977","0.0-6.0-2.49","13","","","","","rectangles","null","null","","","critical","t","c","d","164","240","240","164","162.6685","237.1485","trueblood","0.02","h","164","240","240","164","162.6685","237.1485","39360","39360","38576.5967","dc","null","null","null","null","null","null","[3,2]"
"","canvas-keyboard-response","303","259137","0.0-6.0-3.49","13","","","","","clear_screen","null","null","","","critical","t","c","d","164","240","240","164","162.6685","237.1485","trueblood","0.02","h","164","240","240","164","162.6685","237.1485","39360","39360","38576.5967","dc","null","null","null","null","null","null","[3,2]"
"","canvas-keyboard-response","304","260071","0.0-6.0-4.49","13","","","","","make choice","921","2","","","critical","t","c","d","164","240","240","164","162.6685","237.1485","trueblood","0.02","h","164","240","240","164","162.6685","237.1485","39360","39360","38576.5967","dc","null","null","null","null","null","null","[3,2]"
"","canvas-keyboard-response","305","260231","0.0-6.0-5.49","13","","","","","clear_screen","null","null","","","critical","t","c","d","164","240","240","164","162.6685","237.1485","trueblood","0.02","h","164","240","240","164","162.6685","237.1485","39360","39360","38576.5967","dc","null","null","null","null","null","null","[3,2]"
"","canvas-keyboard-response","306","260432","0.0-6.0-0.50","13","","","","","pre trial waiting period","null","null","","","critical","d","t","c","160.6713","232.8713","164","240","240","164","spektor","0.05","h","164","240","240","164","160.6713","232.8713","39360","39360","37415.7294","dc","null","null","null","null","null","null","[1,3]"
"","canvas-keyboard-response","307","260593","0.0-6.0-1.50","13","","","","","clear_screen","null","null","","","critical","d","t","c","160.6713","232.8713","164","240","240","164","spektor","0.05","h","164","240","240","164","160.6713","232.8713","39360","39360","37415.7294","dc","null","null","null","null","null","null","[1,3]"
