success,trial_type,trial_index,time_elapsed,internal_node_id,sub_n,timeout,failed_images,failed_audio,failed_video,screen_id,rt,response,stimulus,view_history,trial,r1,r2,r3,w1,h1,w2,h2,w3,h3,display,tdd,tdo,tw,th,cw,ch,dw,dh,ta,ca,da,probe,csls,csss,clls,clss,sa,la,probe_rects
TRUE,fullscreen,0,2070,0.0-0.0,64,,,,,,,,,,,,,,,,,,,,,,,,,,,,,,,,,,,,,,,
TRUE,preload,1,2095,0.0-1.0,64,FALSE,[],[],[],img preload,,,,,,,,,,,,,,,,,,,,,,,,,,,,,,,,,,
,survey-html-form,2,18556,0.0-2.0,64,,,,,enter-sub-number,16451,"{""response"":""47""}",,,,,,,,,,,,,,,,,,,,,,,,,,,,,,,,
,image-button-response,3,67838,0.0-3.0,64,,,,,,49173,0,consent.png,,,,,,,,,,,,,,,,,,,,,,,,,,,,,,,
,html-button-response,4,70030,0.0-4.0,64,,,,,intro mssg,2187,0,"<div style= ""font-size:25px;"" <p> <strong> Welcome! </strong><br> <p style=""color:#8B0000; font-size:25px;""><strong> Please do NOT exit full screen until you are done with the experiment. </strong> </p><p style=""font-size:25px;color:#8B0000;""> <strong> Your data will be lost <br> if you try to go back or refresh the page after the experiment starts. Feel free to click ""previous"" during the instructions, however.</strong> </p><br><p> <strong> Thanks in advance for your contribution to our research! </strong></p>",,,,,,,,,,,,,,,,,,,,,,,,,,,,,,,
,instructions,5,112591,0.0-5.0,64,,,,,instructions,42556,,,"[{""page_index"":0,""viewing_time"":7060},{""page_index"":1,""viewing_time"":6560},{""page_index"":2,""viewing_time"":2754},{""page_index"":3,""viewing_time"":12382},{""page_index"":4,""viewing_time"":5832},{""page_index"":5,""viewing_time"":3840},{""page_index"":6,""viewing_time"":3057},{""page_index"":7,""viewing_time"":1071}]",,,,,,,,,,,,,,,,,,,,,,,,,,,,,,
,canvas-keyboard-response,6,112795,0.0-6.0-0.0,64,,,,,pre trial waiting period,null,null,,,catch,l,sw,sh,161,244,168,208,205,201,trueblood,null,null,null,null,null,null,null,null,null,null,null,,180,200,260,200,36000,52000,"[1,3]"
,canvas-keyboard-response,7,112961,0.0-6.0-1.0,64,,,,,clear_screen,null,null,,,catch,l,sw,sh,161,244,168,208,205,201,trueblood,null,null,null,null,null,null,null,null,null,null,null,,180,200,260,200,36000,52000,"[1,3]"
,canvas-keyboard-response,8,114302,0.0-6.0-2.0,64,,,,,rectangles,null,null,,,catch,l,sw,sh,161,244,168,208,205,201,trueblood,null,null,null,null,null,null,null,null,null,null,null,,180,200,260,200,36000,52000,"[1,3]"
,canvas-keyboard-response,9,114462,0.0-6.0-3.0,64,,,,,clear_screen,null,null,,,catch,l,sw,sh,161,244,168,208,205,201,trueblood,null,null,null,null,null,null,null,null,null,null,null,,180,200,260,200,36000,52000,"[1,3]"
,canvas-keyboard-response,10,115043,0.0-6.0-4.0,64,,,,,make choice,569,3,,,catch,l,sw,sh,161,244,168,208,205,201,trueblood,null,null,null,null,null,null,null,null,null,null,null,,180,200,260,200,36000,52000,"[1,3]"
,canvas-keyboard-response,11,115202,0.0-6.0-5.0,64,,,,,clear_screen,null,null,,,catch,l,sw,sh,161,244,168,208,205,201,trueblood,null,null,null,null,null,null,null,null,null,null,null,,180,200,260,200,36000,52000,"[1,3]"
,canvas-keyboard-response,12,115403,0.0-6.0-0.1,64,,,,,pre trial waiting period,null,null,,,critical,c,d,t,240,164,154.6796,220.0396,164,240,spektor,0.14,h,164,240,240,164,154.6796,220.0396,39360,39360,34035.6388,dc,null,null,null,null,null,null,"[2,1]"
,canvas-keyboard-response,13,115563,0.0-6.0-1.1,64,,,,,clear_screen,null,null,,,critical,c,d,t,240,164,154.6796,220.0396,164,240,spektor,0.14,h,164,240,240,164,154.6796,220.0396,39360,39360,34035.6388,dc,null,null,null,null,null,null,"[2,1]"
,canvas-keyboard-response,14,116900,0.0-6.0-2.1,64,,,,,rectangles,null,null,,,critical,c,d,t,240,164,154.6796,220.0396,164,240,spektor,0.14,h,164,240,240,164,154.6796,220.0396,39360,39360,34035.6388,dc,null,null,null,null,null,null,"[2,1]"
,canvas-keyboard-response,15,117058,0.0-6.0-3.1,64,,,,,clear_screen,null,null,,,critical,c,d,t,240,164,154.6796,220.0396,164,240,spektor,0.14,h,164,240,240,164,154.6796,220.0396,39360,39360,34035.6388,dc,null,null,null,null,null,null,"[2,1]"
,canvas-keyboard-response,16,118995,0.0-6.0-4.1,64,,,,,make choice,1928,2,,,critical,c,d,t,240,164,154.6796,220.0396,164,240,spektor,0.14,h,164,240,240,164,154.6796,220.0396,39360,39360,34035.6388,dc,null,null,null,null,null,null,"[2,1]"
,canvas-keyboard-response,17,119156,0.0-6.0-5.1,64,,,,,clear_screen,null,null,,,critical,c,d,t,240,164,154.6796,220.0396,164,240,spektor,0.14,h,164,240,240,164,154.6796,220.0396,39360,39360,34035.6388,dc,null,null,null,null,null,null,"[2,1]"
,canvas-keyboard-response,18,119358,0.0-6.0-0.2,64,,,,,pre trial waiting period,null,null,,,critical,t,d,c,240,164,220.0396,154.6796,164,240,spektor,0.14,w,240,164,164,240,220.0396,154.6796,39360,39360,34035.6388,tc,null,null,null,null,null,null,"[1,3]"
,canvas-keyboard-response,19,119521,0.0-6.0-1.2,64,,,,,clear_screen,null,null,,,critical,t,d,c,240,164,220.0396,154.6796,164,240,spektor,0.14,w,240,164,164,240,220.0396,154.6796,39360,39360,34035.6388,tc,null,null,null,null,null,null,"[1,3]"
,canvas-keyboard-response,20,120858,0.0-6.0-2.2,64,,,,,rectangles,null,null,,,critical,t,d,c,240,164,220.0396,154.6796,164,240,spektor,0.14,w,240,164,164,240,220.0396,154.6796,39360,39360,34035.6388,tc,null,null,null,null,null,null,"[1,3]"
,canvas-keyboard-response,21,121017,0.0-6.0-3.2,64,,,,,clear_screen,null,null,,,critical,t,d,c,240,164,220.0396,154.6796,164,240,spektor,0.14,w,240,164,164,240,220.0396,154.6796,39360,39360,34035.6388,tc,null,null,null,null,null,null,"[1,3]"
,canvas-keyboard-response,22,122411,0.0-6.0-4.2,64,,,,,make choice,1384,3,,,critical,t,d,c,240,164,220.0396,154.6796,164,240,spektor,0.14,w,240,164,164,240,220.0396,154.6796,39360,39360,34035.6388,tc,null,null,null,null,null,null,"[1,3]"
,canvas-keyboard-response,23,122569,0.0-6.0-5.2,64,,,,,clear_screen,null,null,,,critical,t,d,c,240,164,220.0396,154.6796,164,240,spektor,0.14,w,240,164,164,240,220.0396,154.6796,39360,39360,34035.6388,tc,null,null,null,null,null,null,"[1,3]"
,canvas-keyboard-response,24,122772,0.0-6.0-0.3,64,,,,,pre trial waiting period,null,null,,,critical,d,t,c,227.1683,158.0083,240,164,164,240,trueblood,0.09,w,240,164,164,240,227.1683,158.0083,39360,39360,35894.4834,td,null,null,null,null,null,null,"[2,1]"
,canvas-keyboard-response,25,122931,0.0-6.0-1.3,64,,,,,clear_screen,null,null,,,critical,d,t,c,227.1683,158.0083,240,164,164,240,trueblood,0.09,w,240,164,164,240,227.1683,158.0083,39360,39360,35894.4834,td,null,null,null,null,null,null,"[2,1]"
,canvas-keyboard-response,26,124267,0.0-6.0-2.3,64,,,,,rectangles,null,null,,,critical,d,t,c,227.1683,158.0083,240,164,164,240,trueblood,0.09,w,240,164,164,240,227.1683,158.0083,39360,39360,35894.4834,td,null,null,null,null,null,null,"[2,1]"
,canvas-keyboard-response,27,124428,0.0-6.0-3.3,64,,,,,clear_screen,null,null,,,critical,d,t,c,227.1683,158.0083,240,164,164,240,trueblood,0.09,w,240,164,164,240,227.1683,158.0083,39360,39360,35894.4834,td,null,null,null,null,null,null,"[2,1]"
,canvas-keyboard-response,28,125651,0.0-6.0-4.3,64,,,,,make choice,1214,2,,,critical,d,t,c,227.1683,158.0083,240,164,164,240,trueblood,0.09,w,240,164,164,240,227.1683,158.0083,39360,39360,35894.4834,td,null,null,null,null,null,null,"[2,1]"
,canvas-keyboard-response,29,125810,0.0-6.0-5.3,64,,,,,clear_screen,null,null,,,critical,d,t,c,227.1683,158.0083,240,164,164,240,trueblood,0.09,w,240,164,164,240,227.1683,158.0083,39360,39360,35894.4834,td,null,null,null,null,null,null,"[2,1]"
,canvas-keyboard-response,30,126011,0.0-6.0-0.4,64,,,,,pre trial waiting period,null,null,,,critical,c,t,d,164,240,240,164,232.8713,160.6713,spektor,0.05,w,240,164,164,240,232.8713,160.6713,39360,39360,37415.7294,tc,null,null,null,null,null,null,"[2,1]"
,canvas-keyboard-response,31,126171,0.0-6.0-1.4,64,,,,,clear_screen,null,null,,,critical,c,t,d,164,240,240,164,232.8713,160.6713,spektor,0.05,w,240,164,164,240,232.8713,160.6713,39360,39360,37415.7294,tc,null,null,null,null,null,null,"[2,1]"
,canvas-keyboard-response,32,127506,0.0-6.0-2.4,64,,,,,rectangles,null,null,,,critical,c,t,d,164,240,240,164,232.8713,160.6713,spektor,0.05,w,240,164,164,240,232.8713,160.6713,39360,39360,37415.7294,tc,null,null,null,null,null,null,"[2,1]"
,canvas-keyboard-response,33,127664,0.0-6.0-3.4,64,,,,,clear_screen,null,null,,,critical,c,t,d,164,240,240,164,232.8713,160.6713,spektor,0.05,w,240,164,164,240,232.8713,160.6713,39360,39360,37415.7294,tc,null,null,null,null,null,null,"[2,1]"
,canvas-keyboard-response,34,129090,0.0-6.0-4.4,64,,,,,make choice,1418,1,,,critical,c,t,d,164,240,240,164,232.8713,160.6713,spektor,0.05,w,240,164,164,240,232.8713,160.6713,39360,39360,37415.7294,tc,null,null,null,null,null,null,"[2,1]"
,canvas-keyboard-response,35,129249,0.0-6.0-5.4,64,,,,,clear_screen,null,null,,,critical,c,t,d,164,240,240,164,232.8713,160.6713,spektor,0.05,w,240,164,164,240,232.8713,160.6713,39360,39360,37415.7294,tc,null,null,null,null,null,null,"[2,1]"
,canvas-keyboard-response,36,129451,0.0-6.0-0.5,64,,,,,pre trial waiting period,null,null,,,critical,c,d,t,164,240,220.0396,154.6796,240,164,trueblood,0.14,w,240,164,164,240,220.0396,154.6796,39360,39360,34035.6388,dc,null,null,null,null,null,null,"[2,1]"
,canvas-keyboard-response,37,129609,0.0-6.0-1.5,64,,,,,clear_screen,null,null,,,critical,c,d,t,164,240,220.0396,154.6796,240,164,trueblood,0.14,w,240,164,164,240,220.0396,154.6796,39360,39360,34035.6388,dc,null,null,null,null,null,null,"[2,1]"
,canvas-keyboard-response,38,130944,0.0-6.0-2.5,64,,,,,rectangles,null,null,,,critical,c,d,t,164,240,220.0396,154.6796,240,164,trueblood,0.14,w,240,164,164,240,220.0396,154.6796,39360,39360,34035.6388,dc,null,null,null,null,null,null,"[2,1]"
,canvas-keyboard-response,39,131103,0.0-6.0-3.5,64,,,,,clear_screen,null,null,,,critical,c,d,t,164,240,220.0396,154.6796,240,164,trueblood,0.14,w,240,164,164,240,220.0396,154.6796,39360,39360,34035.6388,dc,null,null,null,null,null,null,"[2,1]"
,canvas-keyboard-response,40,132523,0.0-6.0-4.5,64,,,,,make choice,1411,2,,,critical,c,d,t,164,240,220.0396,154.6796,240,164,trueblood,0.14,w,240,164,164,240,220.0396,154.6796,39360,39360,34035.6388,dc,null,null,null,null,null,null,"[2,1]"
,canvas-keyboard-response,41,132681,0.0-6.0-5.5,64,,,,,clear_screen,null,null,,,critical,c,d,t,164,240,220.0396,154.6796,240,164,trueblood,0.14,w,240,164,164,240,220.0396,154.6796,39360,39360,34035.6388,dc,null,null,null,null,null,null,"[2,1]"
,canvas-keyboard-response,42,132882,0.0-6.0-0.6,64,,,,,pre trial waiting period,null,null,,,critical,t,d,c,240,164,237.1485,162.6685,164,240,spektor,0.02,w,240,164,164,240,237.1485,162.6685,39360,39360,38576.5967,dc,null,null,null,null,null,null,"[2,3]"
,canvas-keyboard-response,43,133042,0.0-6.0-1.6,64,,,,,clear_screen,null,null,,,critical,t,d,c,240,164,237.1485,162.6685,164,240,spektor,0.02,w,240,164,164,240,237.1485,162.6685,39360,39360,38576.5967,dc,null,null,null,null,null,null,"[2,3]"
,canvas-keyboard-response,44,134378,0.0-6.0-2.6,64,,,,,rectangles,null,null,,,critical,t,d,c,240,164,237.1485,162.6685,164,240,spektor,0.02,w,240,164,164,240,237.1485,162.6685,39360,39360,38576.5967,dc,null,null,null,null,null,null,"[2,3]"
,canvas-keyboard-response,45,134536,0.0-6.0-3.6,64,,,,,clear_screen,null,null,,,critical,t,d,c,240,164,237.1485,162.6685,164,240,spektor,0.02,w,240,164,164,240,237.1485,162.6685,39360,39360,38576.5967,dc,null,null,null,null,null,null,"[2,3]"
,canvas-keyboard-response,46,135635,0.0-6.0-4.6,64,,,,,make choice,1089,3,,,critical,t,d,c,240,164,237.1485,162.6685,164,240,spektor,0.02,w,240,164,164,240,237.1485,162.6685,39360,39360,38576.5967,dc,null,null,null,null,null,null,"[2,3]"
,canvas-keyboard-response,47,135792,0.0-6.0-5.6,64,,,,,clear_screen,null,null,,,critical,t,d,c,240,164,237.1485,162.6685,164,240,spektor,0.02,w,240,164,164,240,237.1485,162.6685,39360,39360,38576.5967,dc,null,null,null,null,null,null,"[2,3]"
,canvas-keyboard-response,48,135994,0.0-6.0-0.7,64,,,,,pre trial waiting period,null,null,,,critical,c,t,d,164,240,240,164,240,164,spektor,0,w,240,164,164,240,240,164,39360,39360,39360,td,null,null,null,null,null,null,"[2,3]"
,canvas-keyboard-response,49,136152,0.0-6.0-1.7,64,,,,,clear_screen,null,null,,,critical,c,t,d,164,240,240,164,240,164,spektor,0,w,240,164,164,240,240,164,39360,39360,39360,td,null,null,null,null,null,null,"[2,3]"
,canvas-keyboard-response,50,137488,0.0-6.0-2.7,64,,,,,rectangles,null,null,,,critical,c,t,d,164,240,240,164,240,164,spektor,0,w,240,164,164,240,240,164,39360,39360,39360,td,null,null,null,null,null,null,"[2,3]"
,canvas-keyboard-response,51,137647,0.0-6.0-3.7,64,,,,,clear_screen,null,null,,,critical,c,t,d,164,240,240,164,240,164,spektor,0,w,240,164,164,240,240,164,39360,39360,39360,td,null,null,null,null,null,null,"[2,3]"
,canvas-keyboard-response,52,138859,0.0-6.0-4.7,64,,,,,make choice,1203,2,,,critical,c,t,d,164,240,240,164,240,164,spektor,0,w,240,164,164,240,240,164,39360,39360,39360,td,null,null,null,null,null,null,"[2,3]"
,canvas-keyboard-response,53,139017,0.0-6.0-5.7,64,,,,,clear_screen,null,null,,,critical,c,t,d,164,240,240,164,240,164,spektor,0,w,240,164,164,240,240,164,39360,39360,39360,td,null,null,null,null,null,null,"[2,3]"
,canvas-keyboard-response,54,139218,0.0-6.0-0.8,64,,,,,pre trial waiting period,null,null,,,catch,l,sw,sh,296,221,205,236,198,154,spektor,null,null,null,null,null,null,null,null,null,null,null,,180,200,260,200,36000,52000,"[1,2]"
,canvas-keyboard-response,55,139377,0.0-6.0-1.8,64,,,,,clear_screen,null,null,,,catch,l,sw,sh,296,221,205,236,198,154,spektor,null,null,null,null,null,null,null,null,null,null,null,,180,200,260,200,36000,52000,"[1,2]"
,canvas-keyboard-response,56,140714,0.0-6.0-2.8,64,,,,,rectangles,null,null,,,catch,l,sw,sh,296,221,205,236,198,154,spektor,null,null,null,null,null,null,null,null,null,null,null,,180,200,260,200,36000,52000,"[1,2]"
,canvas-keyboard-response,57,140872,0.0-6.0-3.8,64,,,,,clear_screen,null,null,,,catch,l,sw,sh,296,221,205,236,198,154,spektor,null,null,null,null,null,null,null,null,null,null,null,,180,200,260,200,36000,52000,"[1,2]"
,canvas-keyboard-response,58,141618,0.0-6.0-4.8,64,,,,,make choice,738,1,,,catch,l,sw,sh,296,221,205,236,198,154,spektor,null,null,null,null,null,null,null,null,null,null,null,,180,200,260,200,36000,52000,"[1,2]"
,canvas-keyboard-response,59,141778,0.0-6.0-5.8,64,,,,,clear_screen,null,null,,,catch,l,sw,sh,296,221,205,236,198,154,spektor,null,null,null,null,null,null,null,null,null,null,null,,180,200,260,200,36000,52000,"[1,2]"
,canvas-keyboard-response,60,141978,0.0-6.0-0.9,64,,,,,pre trial waiting period,null,null,,,critical,t,c,d,240,164,164,240,240,164,trueblood,0,w,240,164,164,240,240,164,39360,39360,39360,dc,null,null,null,null,null,null,"[3,2]"
,canvas-keyboard-response,61,142137,0.0-6.0-1.9,64,,,,,clear_screen,null,null,,,critical,t,c,d,240,164,164,240,240,164,trueblood,0,w,240,164,164,240,240,164,39360,39360,39360,dc,null,null,null,null,null,null,"[3,2]"
,canvas-keyboard-response,62,143473,0.0-6.0-2.9,64,,,,,rectangles,null,null,,,critical,t,c,d,240,164,164,240,240,164,trueblood,0,w,240,164,164,240,240,164,39360,39360,39360,dc,null,null,null,null,null,null,"[3,2]"
,canvas-keyboard-response,63,143631,0.0-6.0-3.9,64,,,,,clear_screen,null,null,,,critical,t,c,d,240,164,164,240,240,164,trueblood,0,w,240,164,164,240,240,164,39360,39360,39360,dc,null,null,null,null,null,null,"[3,2]"
,canvas-keyboard-response,64,144651,0.0-6.0-4.9,64,,,,,make choice,1011,3,,,critical,t,c,d,240,164,164,240,240,164,trueblood,0,w,240,164,164,240,240,164,39360,39360,39360,dc,null,null,null,null,null,null,"[3,2]"
,canvas-keyboard-response,65,144810,0.0-6.0-5.9,64,,,,,clear_screen,null,null,,,critical,t,c,d,240,164,164,240,240,164,trueblood,0,w,240,164,164,240,240,164,39360,39360,39360,dc,null,null,null,null,null,null,"[3,2]"
,canvas-keyboard-response,66,145011,0.0-6.0-0.10,64,,,,,pre trial waiting period,null,null,,,critical,c,d,t,164,240,237.1485,162.6685,240,164,trueblood,0.02,w,240,164,164,240,237.1485,162.6685,39360,39360,38576.5967,dc,null,null,null,null,null,null,"[2,1]"
,canvas-keyboard-response,67,145170,0.0-6.0-1.10,64,,,,,clear_screen,null,null,,,critical,c,d,t,164,240,237.1485,162.6685,240,164,trueblood,0.02,w,240,164,164,240,237.1485,162.6685,39360,39360,38576.5967,dc,null,null,null,null,null,null,"[2,1]"
,canvas-keyboard-response,68,146506,0.0-6.0-2.10,64,,,,,rectangles,null,null,,,critical,c,d,t,164,240,237.1485,162.6685,240,164,trueblood,0.02,w,240,164,164,240,237.1485,162.6685,39360,39360,38576.5967,dc,null,null,null,null,null,null,"[2,1]"
,canvas-keyboard-response,69,146664,0.0-6.0-3.10,64,,,,,clear_screen,null,null,,,critical,c,d,t,164,240,237.1485,162.6685,240,164,trueblood,0.02,w,240,164,164,240,237.1485,162.6685,39360,39360,38576.5967,dc,null,null,null,null,null,null,"[2,1]"
,canvas-keyboard-response,70,147643,0.0-6.0-4.10,64,,,,,make choice,969,2,,,critical,c,d,t,164,240,237.1485,162.6685,240,164,trueblood,0.02,w,240,164,164,240,237.1485,162.6685,39360,39360,38576.5967,dc,null,null,null,null,null,null,"[2,1]"
,canvas-keyboard-response,71,147801,0.0-6.0-5.10,64,,,,,clear_screen,null,null,,,critical,c,d,t,164,240,237.1485,162.6685,240,164,trueblood,0.02,w,240,164,164,240,237.1485,162.6685,39360,39360,38576.5967,dc,null,null,null,null,null,null,"[2,1]"
,canvas-keyboard-response,72,148001,0.0-6.0-0.11,64,,,,,pre trial waiting period,null,null,,,critical,d,t,c,160.6713,232.8713,164,240,240,164,trueblood,0.05,h,164,240,240,164,160.6713,232.8713,39360,39360,37415.7294,tc,null,null,null,null,null,null,"[2,3]"
,canvas-keyboard-response,73,148161,0.0-6.0-1.11,64,,,,,clear_screen,null,null,,,critical,d,t,c,160.6713,232.8713,164,240,240,164,trueblood,0.05,h,164,240,240,164,160.6713,232.8713,39360,39360,37415.7294,tc,null,null,null,null,null,null,"[2,3]"
,canvas-keyboard-response,74,149495,0.0-6.0-2.11,64,,,,,rectangles,null,null,,,critical,d,t,c,160.6713,232.8713,164,240,240,164,trueblood,0.05,h,164,240,240,164,160.6713,232.8713,39360,39360,37415.7294,tc,null,null,null,null,null,null,"[2,3]"
,canvas-keyboard-response,75,149654,0.0-6.0-3.11,64,,,,,clear_screen,null,null,,,critical,d,t,c,160.6713,232.8713,164,240,240,164,trueblood,0.05,h,164,240,240,164,160.6713,232.8713,39360,39360,37415.7294,tc,null,null,null,null,null,null,"[2,3]"
,canvas-keyboard-response,76,150698,0.0-6.0-4.11,64,,,,,make choice,1036,3,,,critical,d,t,c,160.6713,232.8713,164,240,240,164,trueblood,0.05,h,164,240,240,164,160.6713,232.8713,39360,39360,37415.7294,tc,null,null,null,null,null,null,"[2,3]"
,canvas-keyboard-response,77,150856,0.0-6.0-5.11,64,,,,,clear_screen,null,null,,,critical,d,t,c,160.6713,232.8713,164,240,240,164,trueblood,0.05,h,164,240,240,164,160.6713,232.8713,39360,39360,37415.7294,tc,null,null,null,null,null,null,"[2,3]"
,canvas-keyboard-response,78,151058,0.0-6.0-0.12,64,,,,,pre trial waiting period,null,null,,,critical,t,c,d,164,240,240,164,160.6713,232.8713,spektor,0.05,h,164,240,240,164,160.6713,232.8713,39360,39360,37415.7294,tc,null,null,null,null,null,null,"[1,2]"
,canvas-keyboard-response,79,151217,0.0-6.0-1.12,64,,,,,clear_screen,null,null,,,critical,t,c,d,164,240,240,164,160.6713,232.8713,spektor,0.05,h,164,240,240,164,160.6713,232.8713,39360,39360,37415.7294,tc,null,null,null,null,null,null,"[1,2]"
,canvas-keyboard-response,80,152552,0.0-6.0-2.12,64,,,,,rectangles,null,null,,,critical,t,c,d,164,240,240,164,160.6713,232.8713,spektor,0.05,h,164,240,240,164,160.6713,232.8713,39360,39360,37415.7294,tc,null,null,null,null,null,null,"[1,2]"
,canvas-keyboard-response,81,152710,0.0-6.0-3.12,64,,,,,clear_screen,null,null,,,critical,t,c,d,164,240,240,164,160.6713,232.8713,spektor,0.05,h,164,240,240,164,160.6713,232.8713,39360,39360,37415.7294,tc,null,null,null,null,null,null,"[1,2]"
,canvas-keyboard-response,82,153195,0.0-6.0-4.12,64,,,,,make choice,476,1,,,critical,t,c,d,164,240,240,164,160.6713,232.8713,spektor,0.05,h,164,240,240,164,160.6713,232.8713,39360,39360,37415.7294,tc,null,null,null,null,null,null,"[1,2]"
,canvas-keyboard-response,83,153354,0.0-6.0-5.12,64,,,,,clear_screen,null,null,,,critical,t,c,d,164,240,240,164,160.6713,232.8713,spektor,0.05,h,164,240,240,164,160.6713,232.8713,39360,39360,37415.7294,tc,null,null,null,null,null,null,"[1,2]"
,canvas-keyboard-response,84,153557,0.0-6.0-0.13,64,,,,,pre trial waiting period,null,null,,,catch,sw,l,sh,180,200,252,191,213,207,spektor,null,null,null,null,null,null,null,null,null,null,null,,180,200,260,200,36000,52000,"[2,3]"
,canvas-keyboard-response,85,153718,0.0-6.0-1.13,64,,,,,clear_screen,null,null,,,catch,sw,l,sh,180,200,252,191,213,207,spektor,null,null,null,null,null,null,null,null,null,null,null,,180,200,260,200,36000,52000,"[2,3]"
,canvas-keyboard-response,86,155054,0.0-6.0-2.13,64,,,,,rectangles,null,null,,,catch,sw,l,sh,180,200,252,191,213,207,spektor,null,null,null,null,null,null,null,null,null,null,null,,180,200,260,200,36000,52000,"[2,3]"
,canvas-keyboard-response,87,155213,0.0-6.0-3.13,64,,,,,clear_screen,null,null,,,catch,sw,l,sh,180,200,252,191,213,207,spektor,null,null,null,null,null,null,null,null,null,null,null,,180,200,260,200,36000,52000,"[2,3]"
,canvas-keyboard-response,88,155891,0.0-6.0-4.13,64,,,,,make choice,670,3,,,catch,sw,l,sh,180,200,252,191,213,207,spektor,null,null,null,null,null,null,null,null,null,null,null,,180,200,260,200,36000,52000,"[2,3]"
,canvas-keyboard-response,89,156050,0.0-6.0-5.13,64,,,,,clear_screen,null,null,,,catch,sw,l,sh,180,200,252,191,213,207,spektor,null,null,null,null,null,null,null,null,null,null,null,,180,200,260,200,36000,52000,"[2,3]"
,canvas-keyboard-response,90,156252,0.0-6.0-0.14,64,,,,,pre trial waiting period,null,null,,,critical,c,t,d,240,164,164,240,158.0083,227.1683,spektor,0.09,h,164,240,240,164,158.0083,227.1683,39360,39360,35894.4834,dc,null,null,null,null,null,null,"[3,1]"
,canvas-keyboard-response,91,156412,0.0-6.0-1.14,64,,,,,clear_screen,null,null,,,critical,c,t,d,240,164,164,240,158.0083,227.1683,spektor,0.09,h,164,240,240,164,158.0083,227.1683,39360,39360,35894.4834,dc,null,null,null,null,null,null,"[3,1]"
,canvas-keyboard-response,92,157748,0.0-6.0-2.14,64,,,,,rectangles,null,null,,,critical,c,t,d,240,164,164,240,158.0083,227.1683,spektor,0.09,h,164,240,240,164,158.0083,227.1683,39360,39360,35894.4834,dc,null,null,null,null,null,null,"[3,1]"
,canvas-keyboard-response,93,157908,0.0-6.0-3.14,64,,,,,clear_screen,null,null,,,critical,c,t,d,240,164,164,240,158.0083,227.1683,spektor,0.09,h,164,240,240,164,158.0083,227.1683,39360,39360,35894.4834,dc,null,null,null,null,null,null,"[3,1]"
,canvas-keyboard-response,94,158587,0.0-6.0-4.14,64,,,,,make choice,670,3,,,critical,c,t,d,240,164,164,240,158.0083,227.1683,spektor,0.09,h,164,240,240,164,158.0083,227.1683,39360,39360,35894.4834,dc,null,null,null,null,null,null,"[3,1]"
,canvas-keyboard-response,95,158746,0.0-6.0-5.14,64,,,,,clear_screen,null,null,,,critical,c,t,d,240,164,164,240,158.0083,227.1683,spektor,0.09,h,164,240,240,164,158.0083,227.1683,39360,39360,35894.4834,dc,null,null,null,null,null,null,"[3,1]"
,canvas-keyboard-response,96,158947,0.0-6.0-0.15,64,,,,,pre trial waiting period,null,null,,,catch,sw,l,sh,180,200,247,184,165,157,trueblood,null,null,null,null,null,null,null,null,null,null,null,,180,200,260,200,36000,52000,"[1,2]"
,canvas-keyboard-response,97,159110,0.0-6.0-1.15,64,,,,,clear_screen,null,null,,,catch,sw,l,sh,180,200,247,184,165,157,trueblood,null,null,null,null,null,null,null,null,null,null,null,,180,200,260,200,36000,52000,"[1,2]"
,canvas-keyboard-response,98,160446,0.0-6.0-2.15,64,,,,,rectangles,null,null,,,catch,sw,l,sh,180,200,247,184,165,157,trueblood,null,null,null,null,null,null,null,null,null,null,null,,180,200,260,200,36000,52000,"[1,2]"
,canvas-keyboard-response,99,160605,0.0-6.0-3.15,64,,,,,clear_screen,null,null,,,catch,sw,l,sh,180,200,247,184,165,157,trueblood,null,null,null,null,null,null,null,null,null,null,null,,180,200,260,200,36000,52000,"[1,2]"
,canvas-keyboard-response,100,161178,0.0-6.0-4.15,64,,,,,make choice,565,2,,,catch,sw,l,sh,180,200,247,184,165,157,trueblood,null,null,null,null,null,null,null,null,null,null,null,,180,200,260,200,36000,52000,"[1,2]"
,canvas-keyboard-response,101,161337,0.0-6.0-5.15,64,,,,,clear_screen,null,null,,,catch,sw,l,sh,180,200,247,184,165,157,trueblood,null,null,null,null,null,null,null,null,null,null,null,,180,200,260,200,36000,52000,"[1,2]"
,canvas-keyboard-response,102,161538,0.0-6.0-0.16,64,,,,,pre trial waiting period,null,null,,,critical,t,d,c,164,240,164,240,240,164,trueblood,0,h,164,240,240,164,164,240,39360,39360,39360,tc,null,null,null,null,null,null,"[1,3]"
,canvas-keyboard-response,103,161698,0.0-6.0-1.16,64,,,,,clear_screen,null,null,,,critical,t,d,c,164,240,164,240,240,164,trueblood,0,h,164,240,240,164,164,240,39360,39360,39360,tc,null,null,null,null,null,null,"[1,3]"
,canvas-keyboard-response,104,163033,0.0-6.0-2.16,64,,,,,rectangles,null,null,,,critical,t,d,c,164,240,164,240,240,164,trueblood,0,h,164,240,240,164,164,240,39360,39360,39360,tc,null,null,null,null,null,null,"[1,3]"
,canvas-keyboard-response,105,163192,0.0-6.0-3.16,64,,,,,clear_screen,null,null,,,critical,t,d,c,164,240,164,240,240,164,trueblood,0,h,164,240,240,164,164,240,39360,39360,39360,tc,null,null,null,null,null,null,"[1,3]"
,canvas-keyboard-response,106,164171,0.0-6.0-4.16,64,,,,,make choice,970,3,,,critical,t,d,c,164,240,164,240,240,164,trueblood,0,h,164,240,240,164,164,240,39360,39360,39360,tc,null,null,null,null,null,null,"[1,3]"
,canvas-keyboard-response,107,164329,0.0-6.0-5.16,64,,,,,clear_screen,null,null,,,critical,t,d,c,164,240,164,240,240,164,trueblood,0,h,164,240,240,164,164,240,39360,39360,39360,tc,null,null,null,null,null,null,"[1,3]"
,canvas-keyboard-response,108,164531,0.0-6.0-0.17,64,,,,,pre trial waiting period,null,null,,,critical,c,d,t,240,164,162.6685,237.1485,164,240,spektor,0.02,h,164,240,240,164,162.6685,237.1485,39360,39360,38576.5967,dc,null,null,null,null,null,null,"[2,1]"
,canvas-keyboard-response,109,164691,0.0-6.0-1.17,64,,,,,clear_screen,null,null,,,critical,c,d,t,240,164,162.6685,237.1485,164,240,spektor,0.02,h,164,240,240,164,162.6685,237.1485,39360,39360,38576.5967,dc,null,null,null,null,null,null,"[2,1]"
,canvas-keyboard-response,110,166027,0.0-6.0-2.17,64,,,,,rectangles,null,null,,,critical,c,d,t,240,164,162.6685,237.1485,164,240,spektor,0.02,h,164,240,240,164,162.6685,237.1485,39360,39360,38576.5967,dc,null,null,null,null,null,null,"[2,1]"
,canvas-keyboard-response,111,166186,0.0-6.0-3.17,64,,,,,clear_screen,null,null,,,critical,c,d,t,240,164,162.6685,237.1485,164,240,spektor,0.02,h,164,240,240,164,162.6685,237.1485,39360,39360,38576.5967,dc,null,null,null,null,null,null,"[2,1]"
,canvas-keyboard-response,112,167059,0.0-6.0-4.17,64,,,,,make choice,865,2,,,critical,c,d,t,240,164,162.6685,237.1485,164,240,spektor,0.02,h,164,240,240,164,162.6685,237.1485,39360,39360,38576.5967,dc,null,null,null,null,null,null,"[2,1]"
,canvas-keyboard-response,113,167217,0.0-6.0-5.17,64,,,,,clear_screen,null,null,,,critical,c,d,t,240,164,162.6685,237.1485,164,240,spektor,0.02,h,164,240,240,164,162.6685,237.1485,39360,39360,38576.5967,dc,null,null,null,null,null,null,"[2,1]"
,canvas-keyboard-response,114,167417,0.0-6.0-0.18,64,,,,,pre trial waiting period,null,null,,,catch,l,sw,sh,281,167,210,224,186,141,trueblood,null,null,null,null,null,null,null,null,null,null,null,,180,200,260,200,36000,52000,"[1,3]"
,canvas-keyboard-response,115,167576,0.0-6.0-1.18,64,,,,,clear_screen,null,null,,,catch,l,sw,sh,281,167,210,224,186,141,trueblood,null,null,null,null,null,null,null,null,null,null,null,,180,200,260,200,36000,52000,"[1,3]"
,canvas-keyboard-response,116,168912,0.0-6.0-2.18,64,,,,,rectangles,null,null,,,catch,l,sw,sh,281,167,210,224,186,141,trueblood,null,null,null,null,null,null,null,null,null,null,null,,180,200,260,200,36000,52000,"[1,3]"
,canvas-keyboard-response,117,169070,0.0-6.0-3.18,64,,,,,clear_screen,null,null,,,catch,l,sw,sh,281,167,210,224,186,141,trueblood,null,null,null,null,null,null,null,null,null,null,null,,180,200,260,200,36000,52000,"[1,3]"
,canvas-keyboard-response,118,170282,0.0-6.0-4.18,64,,,,,make choice,1204,1,,,catch,l,sw,sh,281,167,210,224,186,141,trueblood,null,null,null,null,null,null,null,null,null,null,null,,180,200,260,200,36000,52000,"[1,3]"
,canvas-keyboard-response,119,170441,0.0-6.0-5.18,64,,,,,clear_screen,null,null,,,catch,l,sw,sh,281,167,210,224,186,141,trueblood,null,null,null,null,null,null,null,null,null,null,null,,180,200,260,200,36000,52000,"[1,3]"
,canvas-keyboard-response,120,170642,0.0-6.0-0.19,64,,,,,pre trial waiting period,null,null,,,critical,t,d,c,240,164,227.1683,158.0083,164,240,spektor,0.09,w,240,164,164,240,227.1683,158.0083,39360,39360,35894.4834,td,null,null,null,null,null,null,"[1,2]"
,canvas-keyboard-response,121,170801,0.0-6.0-1.19,64,,,,,clear_screen,null,null,,,critical,t,d,c,240,164,227.1683,158.0083,164,240,spektor,0.09,w,240,164,164,240,227.1683,158.0083,39360,39360,35894.4834,td,null,null,null,null,null,null,"[1,2]"
,canvas-keyboard-response,122,172137,0.0-6.0-2.19,64,,,,,rectangles,null,null,,,critical,t,d,c,240,164,227.1683,158.0083,164,240,spektor,0.09,w,240,164,164,240,227.1683,158.0083,39360,39360,35894.4834,td,null,null,null,null,null,null,"[1,2]"
,canvas-keyboard-response,123,172296,0.0-6.0-3.19,64,,,,,clear_screen,null,null,,,critical,t,d,c,240,164,227.1683,158.0083,164,240,spektor,0.09,w,240,164,164,240,227.1683,158.0083,39360,39360,35894.4834,td,null,null,null,null,null,null,"[1,2]"
,canvas-keyboard-response,124,173291,0.0-6.0-4.19,64,,,,,make choice,986,2,,,critical,t,d,c,240,164,227.1683,158.0083,164,240,spektor,0.09,w,240,164,164,240,227.1683,158.0083,39360,39360,35894.4834,td,null,null,null,null,null,null,"[1,2]"
,canvas-keyboard-response,125,173448,0.0-6.0-5.19,64,,,,,clear_screen,null,null,,,critical,t,d,c,240,164,227.1683,158.0083,164,240,spektor,0.09,w,240,164,164,240,227.1683,158.0083,39360,39360,35894.4834,td,null,null,null,null,null,null,"[1,2]"
,canvas-keyboard-response,126,173650,0.0-6.0-0.20,64,,,,,pre trial waiting period,null,null,,,catch,l,sw,sh,224,166,218,179,205,180,spektor,null,null,null,null,null,null,null,null,null,null,null,,180,200,260,200,36000,52000,"[1,2]"
,canvas-keyboard-response,127,173808,0.0-6.0-1.20,64,,,,,clear_screen,null,null,,,catch,l,sw,sh,224,166,218,179,205,180,spektor,null,null,null,null,null,null,null,null,null,null,null,,180,200,260,200,36000,52000,"[1,2]"
,canvas-keyboard-response,128,175144,0.0-6.0-2.20,64,,,,,rectangles,null,null,,,catch,l,sw,sh,224,166,218,179,205,180,spektor,null,null,null,null,null,null,null,null,null,null,null,,180,200,260,200,36000,52000,"[1,2]"
,canvas-keyboard-response,129,175302,0.0-6.0-3.20,64,,,,,clear_screen,null,null,,,catch,l,sw,sh,224,166,218,179,205,180,spektor,null,null,null,null,null,null,null,null,null,null,null,,180,200,260,200,36000,52000,"[1,2]"
,canvas-keyboard-response,130,176099,0.0-6.0-4.20,64,,,,,make choice,789,2,,,catch,l,sw,sh,224,166,218,179,205,180,spektor,null,null,null,null,null,null,null,null,null,null,null,,180,200,260,200,36000,52000,"[1,2]"
,canvas-keyboard-response,131,176256,0.0-6.0-5.20,64,,,,,clear_screen,null,null,,,catch,l,sw,sh,224,166,218,179,205,180,spektor,null,null,null,null,null,null,null,null,null,null,null,,180,200,260,200,36000,52000,"[1,2]"
,canvas-keyboard-response,132,176458,0.0-6.0-0.21,64,,,,,pre trial waiting period,null,null,,,critical,c,d,t,240,164,162.6685,237.1485,164,240,trueblood,0.02,h,164,240,240,164,162.6685,237.1485,39360,39360,38576.5967,tc,null,null,null,null,null,null,"[3,1]"
,canvas-keyboard-response,133,176617,0.0-6.0-1.21,64,,,,,clear_screen,null,null,,,critical,c,d,t,240,164,162.6685,237.1485,164,240,trueblood,0.02,h,164,240,240,164,162.6685,237.1485,39360,39360,38576.5967,tc,null,null,null,null,null,null,"[3,1]"
,canvas-keyboard-response,134,177954,0.0-6.0-2.21,64,,,,,rectangles,null,null,,,critical,c,d,t,240,164,162.6685,237.1485,164,240,trueblood,0.02,h,164,240,240,164,162.6685,237.1485,39360,39360,38576.5967,tc,null,null,null,null,null,null,"[3,1]"
,canvas-keyboard-response,135,178112,0.0-6.0-3.21,64,,,,,clear_screen,null,null,,,critical,c,d,t,240,164,162.6685,237.1485,164,240,trueblood,0.02,h,164,240,240,164,162.6685,237.1485,39360,39360,38576.5967,tc,null,null,null,null,null,null,"[3,1]"
,canvas-keyboard-response,136,178611,0.0-6.0-4.21,64,,,,,make choice,490,1,,,critical,c,d,t,240,164,162.6685,237.1485,164,240,trueblood,0.02,h,164,240,240,164,162.6685,237.1485,39360,39360,38576.5967,tc,null,null,null,null,null,null,"[3,1]"
,canvas-keyboard-response,137,178769,0.0-6.0-5.21,64,,,,,clear_screen,null,null,,,critical,c,d,t,240,164,162.6685,237.1485,164,240,trueblood,0.02,h,164,240,240,164,162.6685,237.1485,39360,39360,38576.5967,tc,null,null,null,null,null,null,"[3,1]"
,canvas-keyboard-response,138,178970,0.0-6.0-0.22,64,,,,,pre trial waiting period,null,null,,,critical,t,c,d,240,164,164,240,237.1485,162.6685,spektor,0.02,w,240,164,164,240,237.1485,162.6685,39360,39360,38576.5967,tc,null,null,null,null,null,null,"[1,2]"
,canvas-keyboard-response,139,179129,0.0-6.0-1.22,64,,,,,clear_screen,null,null,,,critical,t,c,d,240,164,164,240,237.1485,162.6685,spektor,0.02,w,240,164,164,240,237.1485,162.6685,39360,39360,38576.5967,tc,null,null,null,null,null,null,"[1,2]"
,canvas-keyboard-response,140,180464,0.0-6.0-2.22,64,,,,,rectangles,null,null,,,critical,t,c,d,240,164,164,240,237.1485,162.6685,spektor,0.02,w,240,164,164,240,237.1485,162.6685,39360,39360,38576.5967,tc,null,null,null,null,null,null,"[1,2]"
,canvas-keyboard-response,141,180622,0.0-6.0-3.22,64,,,,,clear_screen,null,null,,,critical,t,c,d,240,164,164,240,237.1485,162.6685,spektor,0.02,w,240,164,164,240,237.1485,162.6685,39360,39360,38576.5967,tc,null,null,null,null,null,null,"[1,2]"
,canvas-keyboard-response,142,181626,0.0-6.0-4.22,64,,,,,make choice,995,2,,,critical,t,c,d,240,164,164,240,237.1485,162.6685,spektor,0.02,w,240,164,164,240,237.1485,162.6685,39360,39360,38576.5967,tc,null,null,null,null,null,null,"[1,2]"
,canvas-keyboard-response,143,181784,0.0-6.0-5.22,64,,,,,clear_screen,null,null,,,critical,t,c,d,240,164,164,240,237.1485,162.6685,spektor,0.02,w,240,164,164,240,237.1485,162.6685,39360,39360,38576.5967,tc,null,null,null,null,null,null,"[1,2]"
,canvas-keyboard-response,144,181985,0.0-6.0-0.23,64,,,,,pre trial waiting period,null,null,,,critical,d,t,c,232.8713,160.6713,240,164,164,240,trueblood,0.05,w,240,164,164,240,232.8713,160.6713,39360,39360,37415.7294,dc,null,null,null,null,null,null,"[1,3]"
,canvas-keyboard-response,145,182145,0.0-6.0-1.23,64,,,,,clear_screen,null,null,,,critical,d,t,c,232.8713,160.6713,240,164,164,240,trueblood,0.05,w,240,164,164,240,232.8713,160.6713,39360,39360,37415.7294,dc,null,null,null,null,null,null,"[1,3]"
,canvas-keyboard-response,146,183482,0.0-6.0-2.23,64,,,,,rectangles,null,null,,,critical,d,t,c,232.8713,160.6713,240,164,164,240,trueblood,0.05,w,240,164,164,240,232.8713,160.6713,39360,39360,37415.7294,dc,null,null,null,null,null,null,"[1,3]"
,canvas-keyboard-response,147,183640,0.0-6.0-3.23,64,,,,,clear_screen,null,null,,,critical,d,t,c,232.8713,160.6713,240,164,164,240,trueblood,0.05,w,240,164,164,240,232.8713,160.6713,39360,39360,37415.7294,dc,null,null,null,null,null,null,"[1,3]"
,canvas-keyboard-response,148,184579,0.0-6.0-4.23,64,,,,,make choice,930,3,,,critical,d,t,c,232.8713,160.6713,240,164,164,240,trueblood,0.05,w,240,164,164,240,232.8713,160.6713,39360,39360,37415.7294,dc,null,null,null,null,null,null,"[1,3]"
,canvas-keyboard-response,149,184737,0.0-6.0-5.23,64,,,,,clear_screen,null,null,,,critical,d,t,c,232.8713,160.6713,240,164,164,240,trueblood,0.05,w,240,164,164,240,232.8713,160.6713,39360,39360,37415.7294,dc,null,null,null,null,null,null,"[1,3]"
,canvas-keyboard-response,150,184938,0.0-6.0-0.24,64,,,,,pre trial waiting period,null,null,,,critical,d,c,t,160.6713,232.8713,240,164,164,240,spektor,0.05,h,164,240,240,164,160.6713,232.8713,39360,39360,37415.7294,dc,null,null,null,null,null,null,"[1,2]"
,canvas-keyboard-response,151,185097,0.0-6.0-1.24,64,,,,,clear_screen,null,null,,,critical,d,c,t,160.6713,232.8713,240,164,164,240,spektor,0.05,h,164,240,240,164,160.6713,232.8713,39360,39360,37415.7294,dc,null,null,null,null,null,null,"[1,2]"
,canvas-keyboard-response,152,186432,0.0-6.0-2.24,64,,,,,rectangles,null,null,,,critical,d,c,t,160.6713,232.8713,240,164,164,240,spektor,0.05,h,164,240,240,164,160.6713,232.8713,39360,39360,37415.7294,dc,null,null,null,null,null,null,"[1,2]"
,canvas-keyboard-response,153,186595,0.0-6.0-3.24,64,,,,,clear_screen,null,null,,,critical,d,c,t,160.6713,232.8713,240,164,164,240,spektor,0.05,h,164,240,240,164,160.6713,232.8713,39360,39360,37415.7294,dc,null,null,null,null,null,null,"[1,2]"
,canvas-keyboard-response,154,187570,0.0-6.0-4.24,64,,,,,make choice,966,2,,,critical,d,c,t,160.6713,232.8713,240,164,164,240,spektor,0.05,h,164,240,240,164,160.6713,232.8713,39360,39360,37415.7294,dc,null,null,null,null,null,null,"[1,2]"
,canvas-keyboard-response,155,187728,0.0-6.0-5.24,64,,,,,clear_screen,null,null,,,critical,d,c,t,160.6713,232.8713,240,164,164,240,spektor,0.05,h,164,240,240,164,160.6713,232.8713,39360,39360,37415.7294,dc,null,null,null,null,null,null,"[1,2]"
,canvas-keyboard-response,156,187929,0.0-6.0-0.25,64,,,,,pre trial waiting period,null,null,,,critical,d,c,t,164,240,240,164,164,240,trueblood,0,h,164,240,240,164,164,240,39360,39360,39360,td,null,null,null,null,null,null,"[3,1]"
,canvas-keyboard-response,157,188089,0.0-6.0-1.25,64,,,,,clear_screen,null,null,,,critical,d,c,t,164,240,240,164,164,240,trueblood,0,h,164,240,240,164,164,240,39360,39360,39360,td,null,null,null,null,null,null,"[3,1]"
,canvas-keyboard-response,158,189423,0.0-6.0-2.25,64,,,,,rectangles,null,null,,,critical,d,c,t,164,240,240,164,164,240,trueblood,0,h,164,240,240,164,164,240,39360,39360,39360,td,null,null,null,null,null,null,"[3,1]"
,canvas-keyboard-response,159,189582,0.0-6.0-3.25,64,,,,,clear_screen,null,null,,,critical,d,c,t,164,240,240,164,164,240,trueblood,0,h,164,240,240,164,164,240,39360,39360,39360,td,null,null,null,null,null,null,"[3,1]"
,canvas-keyboard-response,160,190378,0.0-6.0-4.25,64,,,,,make choice,788,3,,,critical,d,c,t,164,240,240,164,164,240,trueblood,0,h,164,240,240,164,164,240,39360,39360,39360,td,null,null,null,null,null,null,"[3,1]"
,canvas-keyboard-response,161,190536,0.0-6.0-5.25,64,,,,,clear_screen,null,null,,,critical,d,c,t,164,240,240,164,164,240,trueblood,0,h,164,240,240,164,164,240,39360,39360,39360,td,null,null,null,null,null,null,"[3,1]"
,canvas-keyboard-response,162,190737,0.0-6.0-0.26,64,,,,,pre trial waiting period,null,null,,,critical,t,c,d,164,240,240,164,154.6796,220.0396,trueblood,0.14,h,164,240,240,164,154.6796,220.0396,39360,39360,34035.6388,tc,null,null,null,null,null,null,"[1,2]"
,canvas-keyboard-response,163,190896,0.0-6.0-1.26,64,,,,,clear_screen,null,null,,,critical,t,c,d,164,240,240,164,154.6796,220.0396,trueblood,0.14,h,164,240,240,164,154.6796,220.0396,39360,39360,34035.6388,tc,null,null,null,null,null,null,"[1,2]"
,canvas-keyboard-response,164,192231,0.0-6.0-2.26,64,,,,,rectangles,null,null,,,critical,t,c,d,164,240,240,164,154.6796,220.0396,trueblood,0.14,h,164,240,240,164,154.6796,220.0396,39360,39360,34035.6388,tc,null,null,null,null,null,null,"[1,2]"
,canvas-keyboard-response,165,192390,0.0-6.0-3.26,64,,,,,clear_screen,null,null,,,critical,t,c,d,164,240,240,164,154.6796,220.0396,trueblood,0.14,h,164,240,240,164,154.6796,220.0396,39360,39360,34035.6388,tc,null,null,null,null,null,null,"[1,2]"
,canvas-keyboard-response,166,192826,0.0-6.0-4.26,64,,,,,make choice,426,2,,,critical,t,c,d,164,240,240,164,154.6796,220.0396,trueblood,0.14,h,164,240,240,164,154.6796,220.0396,39360,39360,34035.6388,tc,null,null,null,null,null,null,"[1,2]"
,canvas-keyboard-response,167,192985,0.0-6.0-5.26,64,,,,,clear_screen,null,null,,,critical,t,c,d,164,240,240,164,154.6796,220.0396,trueblood,0.14,h,164,240,240,164,154.6796,220.0396,39360,39360,34035.6388,tc,null,null,null,null,null,null,"[1,2]"
,canvas-keyboard-response,168,193186,0.0-6.0-0.27,64,,,,,pre trial waiting period,null,null,,,critical,t,c,d,164,240,240,164,158.0083,227.1683,trueblood,0.09,h,164,240,240,164,158.0083,227.1683,39360,39360,35894.4834,dc,null,null,null,null,null,null,"[3,2]"
,canvas-keyboard-response,169,193346,0.0-6.0-1.27,64,,,,,clear_screen,null,null,,,critical,t,c,d,164,240,240,164,158.0083,227.1683,trueblood,0.09,h,164,240,240,164,158.0083,227.1683,39360,39360,35894.4834,dc,null,null,null,null,null,null,"[3,2]"
,canvas-keyboard-response,170,194681,0.0-6.0-2.27,64,,,,,rectangles,null,null,,,critical,t,c,d,164,240,240,164,158.0083,227.1683,trueblood,0.09,h,164,240,240,164,158.0083,227.1683,39360,39360,35894.4834,dc,null,null,null,null,null,null,"[3,2]"
,canvas-keyboard-response,171,194839,0.0-6.0-3.27,64,,,,,clear_screen,null,null,,,critical,t,c,d,164,240,240,164,158.0083,227.1683,trueblood,0.09,h,164,240,240,164,158.0083,227.1683,39360,39360,35894.4834,dc,null,null,null,null,null,null,"[3,2]"
,canvas-keyboard-response,172,195274,0.0-6.0-4.27,64,,,,,make choice,427,2,,,critical,t,c,d,164,240,240,164,158.0083,227.1683,trueblood,0.09,h,164,240,240,164,158.0083,227.1683,39360,39360,35894.4834,dc,null,null,null,null,null,null,"[3,2]"
,canvas-keyboard-response,173,195432,0.0-6.0-5.27,64,,,,,clear_screen,null,null,,,critical,t,c,d,164,240,240,164,158.0083,227.1683,trueblood,0.09,h,164,240,240,164,158.0083,227.1683,39360,39360,35894.4834,dc,null,null,null,null,null,null,"[3,2]"
,canvas-keyboard-response,174,195633,0.0-6.0-0.28,64,,,,,pre trial waiting period,null,null,,,critical,t,d,c,240,164,237.1485,162.6685,164,240,trueblood,0.02,w,240,164,164,240,237.1485,162.6685,39360,39360,38576.5967,tc,null,null,null,null,null,null,"[1,3]"
,canvas-keyboard-response,175,195792,0.0-6.0-1.28,64,,,,,clear_screen,null,null,,,critical,t,d,c,240,164,237.1485,162.6685,164,240,trueblood,0.02,w,240,164,164,240,237.1485,162.6685,39360,39360,38576.5967,tc,null,null,null,null,null,null,"[1,3]"
,canvas-keyboard-response,176,197127,0.0-6.0-2.28,64,,,,,rectangles,null,null,,,critical,t,d,c,240,164,237.1485,162.6685,164,240,trueblood,0.02,w,240,164,164,240,237.1485,162.6685,39360,39360,38576.5967,tc,null,null,null,null,null,null,"[1,3]"
,canvas-keyboard-response,177,197286,0.0-6.0-3.28,64,,,,,clear_screen,null,null,,,critical,t,d,c,240,164,237.1485,162.6685,164,240,trueblood,0.02,w,240,164,164,240,237.1485,162.6685,39360,39360,38576.5967,tc,null,null,null,null,null,null,"[1,3]"
,canvas-keyboard-response,178,198018,0.0-6.0-4.28,64,,,,,make choice,724,3,,,critical,t,d,c,240,164,237.1485,162.6685,164,240,trueblood,0.02,w,240,164,164,240,237.1485,162.6685,39360,39360,38576.5967,tc,null,null,null,null,null,null,"[1,3]"
,canvas-keyboard-response,179,198176,0.0-6.0-5.28,64,,,,,clear_screen,null,null,,,critical,t,d,c,240,164,237.1485,162.6685,164,240,trueblood,0.02,w,240,164,164,240,237.1485,162.6685,39360,39360,38576.5967,tc,null,null,null,null,null,null,"[1,3]"
,canvas-keyboard-response,180,198378,0.0-6.0-0.29,64,,,,,pre trial waiting period,null,null,,,critical,c,d,t,164,240,240,164,240,164,trueblood,0,w,240,164,164,240,240,164,39360,39360,39360,td,null,null,null,null,null,null,"[3,2]"
,canvas-keyboard-response,181,198536,0.0-6.0-1.29,64,,,,,clear_screen,null,null,,,critical,c,d,t,164,240,240,164,240,164,trueblood,0,w,240,164,164,240,240,164,39360,39360,39360,td,null,null,null,null,null,null,"[3,2]"
,canvas-keyboard-response,182,199872,0.0-6.0-2.29,64,,,,,rectangles,null,null,,,critical,c,d,t,164,240,240,164,240,164,trueblood,0,w,240,164,164,240,240,164,39360,39360,39360,td,null,null,null,null,null,null,"[3,2]"
,canvas-keyboard-response,183,200031,0.0-6.0-3.29,64,,,,,clear_screen,null,null,,,critical,c,d,t,164,240,240,164,240,164,trueblood,0,w,240,164,164,240,240,164,39360,39360,39360,td,null,null,null,null,null,null,"[3,2]"
,canvas-keyboard-response,184,200699,0.0-6.0-4.29,64,,,,,make choice,659,3,,,critical,c,d,t,164,240,240,164,240,164,trueblood,0,w,240,164,164,240,240,164,39360,39360,39360,td,null,null,null,null,null,null,"[3,2]"
,canvas-keyboard-response,185,200857,0.0-6.0-5.29,64,,,,,clear_screen,null,null,,,critical,c,d,t,164,240,240,164,240,164,trueblood,0,w,240,164,164,240,240,164,39360,39360,39360,td,null,null,null,null,null,null,"[3,2]"
,canvas-keyboard-response,186,201058,0.0-6.0-0.30,64,,,,,pre trial waiting period,null,null,,,catch,l,sh,sw,266,177,215,142,166,182,trueblood,null,null,null,null,null,null,null,null,null,null,null,,180,200,260,200,36000,52000,"[1,3]"
,canvas-keyboard-response,187,201217,0.0-6.0-1.30,64,,,,,clear_screen,null,null,,,catch,l,sh,sw,266,177,215,142,166,182,trueblood,null,null,null,null,null,null,null,null,null,null,null,,180,200,260,200,36000,52000,"[1,3]"
,canvas-keyboard-response,188,202552,0.0-6.0-2.30,64,,,,,rectangles,null,null,,,catch,l,sh,sw,266,177,215,142,166,182,trueblood,null,null,null,null,null,null,null,null,null,null,null,,180,200,260,200,36000,52000,"[1,3]"
,canvas-keyboard-response,189,202711,0.0-6.0-3.30,64,,,,,clear_screen,null,null,,,catch,l,sh,sw,266,177,215,142,166,182,trueblood,null,null,null,null,null,null,null,null,null,null,null,,180,200,260,200,36000,52000,"[1,3]"
,canvas-keyboard-response,190,203178,0.0-6.0-4.30,64,,,,,make choice,455,1,,,catch,l,sh,sw,266,177,215,142,166,182,trueblood,null,null,null,null,null,null,null,null,null,null,null,,180,200,260,200,36000,52000,"[1,3]"
,canvas-keyboard-response,191,203337,0.0-6.0-5.30,64,,,,,clear_screen,null,null,,,catch,l,sh,sw,266,177,215,142,166,182,trueblood,null,null,null,null,null,null,null,null,null,null,null,,180,200,260,200,36000,52000,"[1,3]"
,canvas-keyboard-response,192,203538,0.0-6.0-0.31,64,,,,,pre trial waiting period,null,null,,,critical,t,c,d,240,164,164,240,240,164,trueblood,0,w,240,164,164,240,240,164,39360,39360,39360,tc,null,null,null,null,null,null,"[1,2]"
,canvas-keyboard-response,193,203697,0.0-6.0-1.31,64,,,,,clear_screen,null,null,,,critical,t,c,d,240,164,164,240,240,164,trueblood,0,w,240,164,164,240,240,164,39360,39360,39360,tc,null,null,null,null,null,null,"[1,2]"
,canvas-keyboard-response,194,205032,0.0-6.0-2.31,64,,,,,rectangles,null,null,,,critical,t,c,d,240,164,164,240,240,164,trueblood,0,w,240,164,164,240,240,164,39360,39360,39360,tc,null,null,null,null,null,null,"[1,2]"
,canvas-keyboard-response,195,205190,0.0-6.0-3.31,64,,,,,clear_screen,null,null,,,critical,t,c,d,240,164,164,240,240,164,trueblood,0,w,240,164,164,240,240,164,39360,39360,39360,tc,null,null,null,null,null,null,"[1,2]"
,canvas-keyboard-response,196,206570,0.0-6.0-4.31,64,,,,,make choice,1372,1,,,critical,t,c,d,240,164,164,240,240,164,trueblood,0,w,240,164,164,240,240,164,39360,39360,39360,tc,null,null,null,null,null,null,"[1,2]"
,canvas-keyboard-response,197,206728,0.0-6.0-5.31,64,,,,,clear_screen,null,null,,,critical,t,c,d,240,164,164,240,240,164,trueblood,0,w,240,164,164,240,240,164,39360,39360,39360,tc,null,null,null,null,null,null,"[1,2]"
,canvas-keyboard-response,198,206929,0.0-6.0-0.32,64,,,,,pre trial waiting period,null,null,,,critical,t,c,d,240,164,164,240,227.1683,158.0083,trueblood,0.09,w,240,164,164,240,227.1683,158.0083,39360,39360,35894.4834,dc,null,null,null,null,null,null,"[3,2]"
,canvas-keyboard-response,199,207087,0.0-6.0-1.32,64,,,,,clear_screen,null,null,,,critical,t,c,d,240,164,164,240,227.1683,158.0083,trueblood,0.09,w,240,164,164,240,227.1683,158.0083,39360,39360,35894.4834,dc,null,null,null,null,null,null,"[3,2]"
,canvas-keyboard-response,200,208423,0.0-6.0-2.32,64,,,,,rectangles,null,null,,,critical,t,c,d,240,164,164,240,227.1683,158.0083,trueblood,0.09,w,240,164,164,240,227.1683,158.0083,39360,39360,35894.4834,dc,null,null,null,null,null,null,"[3,2]"
,canvas-keyboard-response,201,208581,0.0-6.0-3.32,64,,,,,clear_screen,null,null,,,critical,t,c,d,240,164,164,240,227.1683,158.0083,trueblood,0.09,w,240,164,164,240,227.1683,158.0083,39360,39360,35894.4834,dc,null,null,null,null,null,null,"[3,2]"
,canvas-keyboard-response,202,209578,0.0-6.0-4.32,64,,,,,make choice,989,3,,,critical,t,c,d,240,164,164,240,227.1683,158.0083,trueblood,0.09,w,240,164,164,240,227.1683,158.0083,39360,39360,35894.4834,dc,null,null,null,null,null,null,"[3,2]"
,canvas-keyboard-response,203,209736,0.0-6.0-5.32,64,,,,,clear_screen,null,null,,,critical,t,c,d,240,164,164,240,227.1683,158.0083,trueblood,0.09,w,240,164,164,240,227.1683,158.0083,39360,39360,35894.4834,dc,null,null,null,null,null,null,"[3,2]"
,canvas-keyboard-response,204,209937,0.0-6.0-0.33,64,,,,,pre trial waiting period,null,null,,,catch,l,sw,sh,165,267,200,167,227,143,spektor,null,null,null,null,null,null,null,null,null,null,null,,180,200,260,200,36000,52000,"[1,2]"
,canvas-keyboard-response,205,210096,0.0-6.0-1.33,64,,,,,clear_screen,null,null,,,catch,l,sw,sh,165,267,200,167,227,143,spektor,null,null,null,null,null,null,null,null,null,null,null,,180,200,260,200,36000,52000,"[1,2]"
,canvas-keyboard-response,206,211431,0.0-6.0-2.33,64,,,,,rectangles,null,null,,,catch,l,sw,sh,165,267,200,167,227,143,spektor,null,null,null,null,null,null,null,null,null,null,null,,180,200,260,200,36000,52000,"[1,2]"
,canvas-keyboard-response,207,211589,0.0-6.0-3.33,64,,,,,clear_screen,null,null,,,catch,l,sw,sh,165,267,200,167,227,143,spektor,null,null,null,null,null,null,null,null,null,null,null,,180,200,260,200,36000,52000,"[1,2]"
,canvas-keyboard-response,208,212122,0.0-6.0-4.33,64,,,,,make choice,524,1,,,catch,l,sw,sh,165,267,200,167,227,143,spektor,null,null,null,null,null,null,null,null,null,null,null,,180,200,260,200,36000,52000,"[1,2]"
,canvas-keyboard-response,209,212280,0.0-6.0-5.33,64,,,,,clear_screen,null,null,,,catch,l,sw,sh,165,267,200,167,227,143,spektor,null,null,null,null,null,null,null,null,null,null,null,,180,200,260,200,36000,52000,"[1,2]"
,canvas-keyboard-response,210,212480,0.0-6.0-0.34,64,,,,,pre trial waiting period,null,null,,,catch,sh,l,sw,188,166,255,212,198,171,spektor,null,null,null,null,null,null,null,null,null,null,null,,180,200,260,200,36000,52000,"[1,2]"
,canvas-keyboard-response,211,212639,0.0-6.0-1.34,64,,,,,clear_screen,null,null,,,catch,sh,l,sw,188,166,255,212,198,171,spektor,null,null,null,null,null,null,null,null,null,null,null,,180,200,260,200,36000,52000,"[1,2]"
,canvas-keyboard-response,212,213975,0.0-6.0-2.34,64,,,,,rectangles,null,null,,,catch,sh,l,sw,188,166,255,212,198,171,spektor,null,null,null,null,null,null,null,null,null,null,null,,180,200,260,200,36000,52000,"[1,2]"
,canvas-keyboard-response,213,214133,0.0-6.0-3.34,64,,,,,clear_screen,null,null,,,catch,sh,l,sw,188,166,255,212,198,171,spektor,null,null,null,null,null,null,null,null,null,null,null,,180,200,260,200,36000,52000,"[1,2]"
,canvas-keyboard-response,214,214843,0.0-6.0-4.34,64,,,,,make choice,701,2,,,catch,sh,l,sw,188,166,255,212,198,171,spektor,null,null,null,null,null,null,null,null,null,null,null,,180,200,260,200,36000,52000,"[1,2]"
,canvas-keyboard-response,215,215003,0.0-6.0-5.34,64,,,,,clear_screen,null,null,,,catch,sh,l,sw,188,166,255,212,198,171,spektor,null,null,null,null,null,null,null,null,null,null,null,,180,200,260,200,36000,52000,"[1,2]"
,canvas-keyboard-response,216,215206,0.0-6.0-0.35,64,,,,,pre trial waiting period,null,null,,,critical,c,d,t,164,240,220.0396,154.6796,240,164,spektor,0.14,w,240,164,164,240,220.0396,154.6796,39360,39360,34035.6388,td,null,null,null,null,null,null,"[3,2]"
,canvas-keyboard-response,217,215367,0.0-6.0-1.35,64,,,,,clear_screen,null,null,,,critical,c,d,t,164,240,220.0396,154.6796,240,164,spektor,0.14,w,240,164,164,240,220.0396,154.6796,39360,39360,34035.6388,td,null,null,null,null,null,null,"[3,2]"
,canvas-keyboard-response,218,216703,0.0-6.0-2.35,64,,,,,rectangles,null,null,,,critical,c,d,t,164,240,220.0396,154.6796,240,164,spektor,0.14,w,240,164,164,240,220.0396,154.6796,39360,39360,34035.6388,td,null,null,null,null,null,null,"[3,2]"
,canvas-keyboard-response,219,216862,0.0-6.0-3.35,64,,,,,clear_screen,null,null,,,critical,c,d,t,164,240,220.0396,154.6796,240,164,spektor,0.14,w,240,164,164,240,220.0396,154.6796,39360,39360,34035.6388,td,null,null,null,null,null,null,"[3,2]"
,canvas-keyboard-response,220,217538,0.0-6.0-4.35,64,,,,,make choice,667,3,,,critical,c,d,t,164,240,220.0396,154.6796,240,164,spektor,0.14,w,240,164,164,240,220.0396,154.6796,39360,39360,34035.6388,td,null,null,null,null,null,null,"[3,2]"
,canvas-keyboard-response,221,217698,0.0-6.0-5.35,64,,,,,clear_screen,null,null,,,critical,c,d,t,164,240,220.0396,154.6796,240,164,spektor,0.14,w,240,164,164,240,220.0396,154.6796,39360,39360,34035.6388,td,null,null,null,null,null,null,"[3,2]"
,canvas-keyboard-response,222,217899,0.0-6.0-0.36,64,,,,,pre trial waiting period,null,null,,,critical,c,d,t,240,164,154.6796,220.0396,164,240,trueblood,0.14,h,164,240,240,164,154.6796,220.0396,39360,39360,34035.6388,dc,null,null,null,null,null,null,"[2,1]"
,canvas-keyboard-response,223,218058,0.0-6.0-1.36,64,,,,,clear_screen,null,null,,,critical,c,d,t,240,164,154.6796,220.0396,164,240,trueblood,0.14,h,164,240,240,164,154.6796,220.0396,39360,39360,34035.6388,dc,null,null,null,null,null,null,"[2,1]"
,canvas-keyboard-response,224,219395,0.0-6.0-2.36,64,,,,,rectangles,null,null,,,critical,c,d,t,240,164,154.6796,220.0396,164,240,trueblood,0.14,h,164,240,240,164,154.6796,220.0396,39360,39360,34035.6388,dc,null,null,null,null,null,null,"[2,1]"
,canvas-keyboard-response,225,219554,0.0-6.0-3.36,64,,,,,clear_screen,null,null,,,critical,c,d,t,240,164,154.6796,220.0396,164,240,trueblood,0.14,h,164,240,240,164,154.6796,220.0396,39360,39360,34035.6388,dc,null,null,null,null,null,null,"[2,1]"
,canvas-keyboard-response,226,220218,0.0-6.0-4.36,64,,,,,make choice,655,1,,,critical,c,d,t,240,164,154.6796,220.0396,164,240,trueblood,0.14,h,164,240,240,164,154.6796,220.0396,39360,39360,34035.6388,dc,null,null,null,null,null,null,"[2,1]"
,canvas-keyboard-response,227,220380,0.0-6.0-5.36,64,,,,,clear_screen,null,null,,,critical,c,d,t,240,164,154.6796,220.0396,164,240,trueblood,0.14,h,164,240,240,164,154.6796,220.0396,39360,39360,34035.6388,dc,null,null,null,null,null,null,"[2,1]"
,canvas-keyboard-response,228,220581,0.0-6.0-0.37,64,,,,,pre trial waiting period,null,null,,,critical,d,t,c,160.6713,232.8713,164,240,240,164,trueblood,0.05,h,164,240,240,164,160.6713,232.8713,39360,39360,37415.7294,dc,null,null,null,null,null,null,"[1,3]"
,canvas-keyboard-response,229,220741,0.0-6.0-1.37,64,,,,,clear_screen,null,null,,,critical,d,t,c,160.6713,232.8713,164,240,240,164,trueblood,0.05,h,164,240,240,164,160.6713,232.8713,39360,39360,37415.7294,dc,null,null,null,null,null,null,"[1,3]"
,canvas-keyboard-response,230,222076,0.0-6.0-2.37,64,,,,,rectangles,null,null,,,critical,d,t,c,160.6713,232.8713,164,240,240,164,trueblood,0.05,h,164,240,240,164,160.6713,232.8713,39360,39360,37415.7294,dc,null,null,null,null,null,null,"[1,3]"
,canvas-keyboard-response,231,222235,0.0-6.0-3.37,64,,,,,clear_screen,null,null,,,critical,d,t,c,160.6713,232.8713,164,240,240,164,trueblood,0.05,h,164,240,240,164,160.6713,232.8713,39360,39360,37415.7294,dc,null,null,null,null,null,null,"[1,3]"
,canvas-keyboard-response,232,223827,0.0-6.0-4.37,64,,,,,make choice,1582,3,,,critical,d,t,c,160.6713,232.8713,164,240,240,164,trueblood,0.05,h,164,240,240,164,160.6713,232.8713,39360,39360,37415.7294,dc,null,null,null,null,null,null,"[1,3]"
,canvas-keyboard-response,233,223985,0.0-6.0-5.37,64,,,,,clear_screen,null,null,,,critical,d,t,c,160.6713,232.8713,164,240,240,164,trueblood,0.05,h,164,240,240,164,160.6713,232.8713,39360,39360,37415.7294,dc,null,null,null,null,null,null,"[1,3]"
,canvas-keyboard-response,234,224186,0.0-6.0-0.38,64,,,,,pre trial waiting period,null,null,,,critical,t,c,d,240,164,164,240,220.0396,154.6796,spektor,0.14,w,240,164,164,240,220.0396,154.6796,39360,39360,34035.6388,dc,null,null,null,null,null,null,"[3,2]"
,canvas-keyboard-response,235,224346,0.0-6.0-1.38,64,,,,,clear_screen,null,null,,,critical,t,c,d,240,164,164,240,220.0396,154.6796,spektor,0.14,w,240,164,164,240,220.0396,154.6796,39360,39360,34035.6388,dc,null,null,null,null,null,null,"[3,2]"
,canvas-keyboard-response,236,225681,0.0-6.0-2.38,64,,,,,rectangles,null,null,,,critical,t,c,d,240,164,164,240,220.0396,154.6796,spektor,0.14,w,240,164,164,240,220.0396,154.6796,39360,39360,34035.6388,dc,null,null,null,null,null,null,"[3,2]"
,canvas-keyboard-response,237,225840,0.0-6.0-3.38,64,,,,,clear_screen,null,null,,,critical,t,c,d,240,164,164,240,220.0396,154.6796,spektor,0.14,w,240,164,164,240,220.0396,154.6796,39360,39360,34035.6388,dc,null,null,null,null,null,null,"[3,2]"
,canvas-keyboard-response,238,227106,0.0-6.0-4.38,64,,,,,make choice,1258,2,,,critical,t,c,d,240,164,164,240,220.0396,154.6796,spektor,0.14,w,240,164,164,240,220.0396,154.6796,39360,39360,34035.6388,dc,null,null,null,null,null,null,"[3,2]"
,canvas-keyboard-response,239,227264,0.0-6.0-5.38,64,,,,,clear_screen,null,null,,,critical,t,c,d,240,164,164,240,220.0396,154.6796,spektor,0.14,w,240,164,164,240,220.0396,154.6796,39360,39360,34035.6388,dc,null,null,null,null,null,null,"[3,2]"
,canvas-keyboard-response,240,227466,0.0-6.0-0.39,64,,,,,pre trial waiting period,null,null,,,critical,t,d,c,164,240,154.6796,220.0396,240,164,spektor,0.14,h,164,240,240,164,154.6796,220.0396,39360,39360,34035.6388,td,null,null,null,null,null,null,"[1,2]"
,canvas-keyboard-response,241,227625,0.0-6.0-1.39,64,,,,,clear_screen,null,null,,,critical,t,d,c,164,240,154.6796,220.0396,240,164,spektor,0.14,h,164,240,240,164,154.6796,220.0396,39360,39360,34035.6388,td,null,null,null,null,null,null,"[1,2]"
,canvas-keyboard-response,242,228961,0.0-6.0-2.39,64,,,,,rectangles,null,null,,,critical,t,d,c,164,240,154.6796,220.0396,240,164,spektor,0.14,h,164,240,240,164,154.6796,220.0396,39360,39360,34035.6388,td,null,null,null,null,null,null,"[1,2]"
,canvas-keyboard-response,243,229119,0.0-6.0-3.39,64,,,,,clear_screen,null,null,,,critical,t,d,c,164,240,154.6796,220.0396,240,164,spektor,0.14,h,164,240,240,164,154.6796,220.0396,39360,39360,34035.6388,td,null,null,null,null,null,null,"[1,2]"
,canvas-keyboard-response,244,230162,0.0-6.0-4.39,64,,,,,make choice,1034,2,,,critical,t,d,c,164,240,154.6796,220.0396,240,164,spektor,0.14,h,164,240,240,164,154.6796,220.0396,39360,39360,34035.6388,td,null,null,null,null,null,null,"[1,2]"
,canvas-keyboard-response,245,230320,0.0-6.0-5.39,64,,,,,clear_screen,null,null,,,critical,t,d,c,164,240,154.6796,220.0396,240,164,spektor,0.14,h,164,240,240,164,154.6796,220.0396,39360,39360,34035.6388,td,null,null,null,null,null,null,"[1,2]"
,canvas-keyboard-response,246,230521,0.0-6.0-0.40,64,,,,,pre trial waiting period,null,null,,,critical,t,d,c,164,240,164,240,240,164,spektor,0,h,164,240,240,164,164,240,39360,39360,39360,tc,null,null,null,null,null,null,"[1,3]"
,canvas-keyboard-response,247,230680,0.0-6.0-1.40,64,,,,,clear_screen,null,null,,,critical,t,d,c,164,240,164,240,240,164,spektor,0,h,164,240,240,164,164,240,39360,39360,39360,tc,null,null,null,null,null,null,"[1,3]"
,canvas-keyboard-response,248,232016,0.0-6.0-2.40,64,,,,,rectangles,null,null,,,critical,t,d,c,164,240,164,240,240,164,spektor,0,h,164,240,240,164,164,240,39360,39360,39360,tc,null,null,null,null,null,null,"[1,3]"
,canvas-keyboard-response,249,232175,0.0-6.0-3.40,64,,,,,clear_screen,null,null,,,critical,t,d,c,164,240,164,240,240,164,spektor,0,h,164,240,240,164,164,240,39360,39360,39360,tc,null,null,null,null,null,null,"[1,3]"
,canvas-keyboard-response,250,233138,0.0-6.0-4.40,64,,,,,make choice,956,1,,,critical,t,d,c,164,240,164,240,240,164,spektor,0,h,164,240,240,164,164,240,39360,39360,39360,tc,null,null,null,null,null,null,"[1,3]"
,canvas-keyboard-response,251,233297,0.0-6.0-5.40,64,,,,,clear_screen,null,null,,,critical,t,d,c,164,240,164,240,240,164,spektor,0,h,164,240,240,164,164,240,39360,39360,39360,tc,null,null,null,null,null,null,"[1,3]"
,canvas-keyboard-response,252,233498,0.0-6.0-0.41,64,,,,,pre trial waiting period,null,null,,,catch,sh,sw,l,163,154,146,205,248,239,spektor,null,null,null,null,null,null,null,null,null,null,null,,180,200,260,200,36000,52000,"[2,3]"
,canvas-keyboard-response,253,233658,0.0-6.0-1.41,64,,,,,clear_screen,null,null,,,catch,sh,sw,l,163,154,146,205,248,239,spektor,null,null,null,null,null,null,null,null,null,null,null,,180,200,260,200,36000,52000,"[2,3]"
,canvas-keyboard-response,254,234994,0.0-6.0-2.41,64,,,,,rectangles,null,null,,,catch,sh,sw,l,163,154,146,205,248,239,spektor,null,null,null,null,null,null,null,null,null,null,null,,180,200,260,200,36000,52000,"[2,3]"
,canvas-keyboard-response,255,235152,0.0-6.0-3.41,64,,,,,clear_screen,null,null,,,catch,sh,sw,l,163,154,146,205,248,239,spektor,null,null,null,null,null,null,null,null,null,null,null,,180,200,260,200,36000,52000,"[2,3]"
,canvas-keyboard-response,256,236090,0.0-6.0-4.41,64,,,,,make choice,930,3,,,catch,sh,sw,l,163,154,146,205,248,239,spektor,null,null,null,null,null,null,null,null,null,null,null,,180,200,260,200,36000,52000,"[2,3]"
,canvas-keyboard-response,257,236249,0.0-6.0-5.41,64,,,,,clear_screen,null,null,,,catch,sh,sw,l,163,154,146,205,248,239,spektor,null,null,null,null,null,null,null,null,null,null,null,,180,200,260,200,36000,52000,"[2,3]"
,canvas-keyboard-response,258,236450,0.0-6.0-0.42,64,,,,,pre trial waiting period,null,null,,,critical,t,c,d,240,164,164,240,240,164,spektor,0,w,240,164,164,240,240,164,39360,39360,39360,dc,null,null,null,null,null,null,"[3,2]"
,canvas-keyboard-response,259,236609,0.0-6.0-1.42,64,,,,,clear_screen,null,null,,,critical,t,c,d,240,164,164,240,240,164,spektor,0,w,240,164,164,240,240,164,39360,39360,39360,dc,null,null,null,null,null,null,"[3,2]"
,canvas-keyboard-response,260,237944,0.0-6.0-2.42,64,,,,,rectangles,null,null,,,critical,t,c,d,240,164,164,240,240,164,spektor,0,w,240,164,164,240,240,164,39360,39360,39360,dc,null,null,null,null,null,null,"[3,2]"
,canvas-keyboard-response,261,238103,0.0-6.0-3.42,64,,,,,clear_screen,null,null,,,critical,t,c,d,240,164,164,240,240,164,spektor,0,w,240,164,164,240,240,164,39360,39360,39360,dc,null,null,null,null,null,null,"[3,2]"
,canvas-keyboard-response,262,238820,0.0-6.0-4.42,64,,,,,make choice,708,2,,,critical,t,c,d,240,164,164,240,240,164,spektor,0,w,240,164,164,240,240,164,39360,39360,39360,dc,null,null,null,null,null,null,"[3,2]"
,canvas-keyboard-response,263,238978,0.0-6.0-5.42,64,,,,,clear_screen,null,null,,,critical,t,c,d,240,164,164,240,240,164,spektor,0,w,240,164,164,240,240,164,39360,39360,39360,dc,null,null,null,null,null,null,"[3,2]"
,canvas-keyboard-response,264,239179,0.0-6.0-0.43,64,,,,,pre trial waiting period,null,null,,,critical,t,c,d,240,164,164,240,232.8713,160.6713,trueblood,0.05,w,240,164,164,240,232.8713,160.6713,39360,39360,37415.7294,tc,null,null,null,null,null,null,"[1,2]"
,canvas-keyboard-response,265,239339,0.0-6.0-1.43,64,,,,,clear_screen,null,null,,,critical,t,c,d,240,164,164,240,232.8713,160.6713,trueblood,0.05,w,240,164,164,240,232.8713,160.6713,39360,39360,37415.7294,tc,null,null,null,null,null,null,"[1,2]"
,canvas-keyboard-response,266,240674,0.0-6.0-2.43,64,,,,,rectangles,null,null,,,critical,t,c,d,240,164,164,240,232.8713,160.6713,trueblood,0.05,w,240,164,164,240,232.8713,160.6713,39360,39360,37415.7294,tc,null,null,null,null,null,null,"[1,2]"
,canvas-keyboard-response,267,240833,0.0-6.0-3.43,64,,,,,clear_screen,null,null,,,critical,t,c,d,240,164,164,240,232.8713,160.6713,trueblood,0.05,w,240,164,164,240,232.8713,160.6713,39360,39360,37415.7294,tc,null,null,null,null,null,null,"[1,2]"
,canvas-keyboard-response,268,241642,0.0-6.0-4.43,64,,,,,make choice,800,2,,,critical,t,c,d,240,164,164,240,232.8713,160.6713,trueblood,0.05,w,240,164,164,240,232.8713,160.6713,39360,39360,37415.7294,tc,null,null,null,null,null,null,"[1,2]"
,canvas-keyboard-response,269,241800,0.0-6.0-5.43,64,,,,,clear_screen,null,null,,,critical,t,c,d,240,164,164,240,232.8713,160.6713,trueblood,0.05,w,240,164,164,240,232.8713,160.6713,39360,39360,37415.7294,tc,null,null,null,null,null,null,"[1,2]"
,canvas-keyboard-response,270,242002,0.0-6.0-0.44,64,,,,,pre trial waiting period,null,null,,,catch,sw,sh,l,180,200,238,179,200,271,spektor,null,null,null,null,null,null,null,null,null,null,null,,180,200,260,200,36000,52000,"[2,3]"
,canvas-keyboard-response,271,242160,0.0-6.0-1.44,64,,,,,clear_screen,null,null,,,catch,sw,sh,l,180,200,238,179,200,271,spektor,null,null,null,null,null,null,null,null,null,null,null,,180,200,260,200,36000,52000,"[2,3]"
,canvas-keyboard-response,272,243496,0.0-6.0-2.44,64,,,,,rectangles,null,null,,,catch,sw,sh,l,180,200,238,179,200,271,spektor,null,null,null,null,null,null,null,null,null,null,null,,180,200,260,200,36000,52000,"[2,3]"
,canvas-keyboard-response,273,243654,0.0-6.0-3.44,64,,,,,clear_screen,null,null,,,catch,sw,sh,l,180,200,238,179,200,271,spektor,null,null,null,null,null,null,null,null,null,null,null,,180,200,260,200,36000,52000,"[2,3]"
,canvas-keyboard-response,274,244267,0.0-6.0-4.44,64,,,,,make choice,603,3,,,catch,sw,sh,l,180,200,238,179,200,271,spektor,null,null,null,null,null,null,null,null,null,null,null,,180,200,260,200,36000,52000,"[2,3]"
,canvas-keyboard-response,275,244424,0.0-6.0-5.44,64,,,,,clear_screen,null,null,,,catch,sw,sh,l,180,200,238,179,200,271,spektor,null,null,null,null,null,null,null,null,null,null,null,,180,200,260,200,36000,52000,"[2,3]"
,canvas-keyboard-response,276,244625,0.0-6.0-0.45,64,,,,,pre trial waiting period,null,null,,,critical,c,t,d,164,240,240,164,232.8713,160.6713,spektor,0.05,w,240,164,164,240,232.8713,160.6713,39360,39360,37415.7294,td,null,null,null,null,null,null,"[2,3]"
,canvas-keyboard-response,277,244784,0.0-6.0-1.45,64,,,,,clear_screen,null,null,,,critical,c,t,d,164,240,240,164,232.8713,160.6713,spektor,0.05,w,240,164,164,240,232.8713,160.6713,39360,39360,37415.7294,td,null,null,null,null,null,null,"[2,3]"
,canvas-keyboard-response,278,246124,0.0-6.0-2.45,64,,,,,rectangles,null,null,,,critical,c,t,d,164,240,240,164,232.8713,160.6713,spektor,0.05,w,240,164,164,240,232.8713,160.6713,39360,39360,37415.7294,td,null,null,null,null,null,null,"[2,3]"
,canvas-keyboard-response,279,246283,0.0-6.0-3.45,64,,,,,clear_screen,null,null,,,critical,c,t,d,164,240,240,164,232.8713,160.6713,spektor,0.05,w,240,164,164,240,232.8713,160.6713,39360,39360,37415.7294,td,null,null,null,null,null,null,"[2,3]"
,canvas-keyboard-response,280,247259,0.0-6.0-4.45,64,,,,,make choice,966,2,,,critical,c,t,d,164,240,240,164,232.8713,160.6713,spektor,0.05,w,240,164,164,240,232.8713,160.6713,39360,39360,37415.7294,td,null,null,null,null,null,null,"[2,3]"
,canvas-keyboard-response,281,247420,0.0-6.0-5.45,64,,,,,clear_screen,null,null,,,critical,c,t,d,164,240,240,164,232.8713,160.6713,spektor,0.05,w,240,164,164,240,232.8713,160.6713,39360,39360,37415.7294,td,null,null,null,null,null,null,"[2,3]"
,canvas-keyboard-response,282,247624,0.0-6.0-0.46,64,,,,,pre trial waiting period,null,null,,,critical,d,c,t,227.1683,158.0083,164,240,240,164,trueblood,0.09,w,240,164,164,240,227.1683,158.0083,39360,39360,35894.4834,tc,null,null,null,null,null,null,"[3,2]"
,canvas-keyboard-response,283,247784,0.0-6.0-1.46,64,,,,,clear_screen,null,null,,,critical,d,c,t,227.1683,158.0083,164,240,240,164,trueblood,0.09,w,240,164,164,240,227.1683,158.0083,39360,39360,35894.4834,tc,null,null,null,null,null,null,"[3,2]"
,canvas-keyboard-response,284,249121,0.0-6.0-2.46,64,,,,,rectangles,null,null,,,critical,d,c,t,227.1683,158.0083,164,240,240,164,trueblood,0.09,w,240,164,164,240,227.1683,158.0083,39360,39360,35894.4834,tc,null,null,null,null,null,null,"[3,2]"
,canvas-keyboard-response,285,249279,0.0-6.0-3.46,64,,,,,clear_screen,null,null,,,critical,d,c,t,227.1683,158.0083,164,240,240,164,trueblood,0.09,w,240,164,164,240,227.1683,158.0083,39360,39360,35894.4834,tc,null,null,null,null,null,null,"[3,2]"
,canvas-keyboard-response,286,250410,0.0-6.0-4.46,64,,,,,make choice,1121,2,,,critical,d,c,t,227.1683,158.0083,164,240,240,164,trueblood,0.09,w,240,164,164,240,227.1683,158.0083,39360,39360,35894.4834,tc,null,null,null,null,null,null,"[3,2]"
,canvas-keyboard-response,287,250569,0.0-6.0-5.46,64,,,,,clear_screen,null,null,,,critical,d,c,t,227.1683,158.0083,164,240,240,164,trueblood,0.09,w,240,164,164,240,227.1683,158.0083,39360,39360,35894.4834,tc,null,null,null,null,null,null,"[3,2]"
,canvas-keyboard-response,288,250771,0.0-6.0-0.47,64,,,,,pre trial waiting period,null,null,,,critical,d,t,c,158.0083,227.1683,164,240,240,164,trueblood,0.09,h,164,240,240,164,158.0083,227.1683,39360,39360,35894.4834,tc,null,null,null,null,null,null,"[2,3]"
,canvas-keyboard-response,289,250930,0.0-6.0-1.47,64,,,,,clear_screen,null,null,,,critical,d,t,c,158.0083,227.1683,164,240,240,164,trueblood,0.09,h,164,240,240,164,158.0083,227.1683,39360,39360,35894.4834,tc,null,null,null,null,null,null,"[2,3]"
,canvas-keyboard-response,290,252267,0.0-6.0-2.47,64,,,,,rectangles,null,null,,,critical,d,t,c,158.0083,227.1683,164,240,240,164,trueblood,0.09,h,164,240,240,164,158.0083,227.1683,39360,39360,35894.4834,tc,null,null,null,null,null,null,"[2,3]"
,canvas-keyboard-response,291,252426,0.0-6.0-3.47,64,,,,,clear_screen,null,null,,,critical,d,t,c,158.0083,227.1683,164,240,240,164,trueblood,0.09,h,164,240,240,164,158.0083,227.1683,39360,39360,35894.4834,tc,null,null,null,null,null,null,"[2,3]"
,canvas-keyboard-response,292,253665,0.0-6.0-4.47,64,,,,,make choice,1232,3,,,critical,d,t,c,158.0083,227.1683,164,240,240,164,trueblood,0.09,h,164,240,240,164,158.0083,227.1683,39360,39360,35894.4834,tc,null,null,null,null,null,null,"[2,3]"
,canvas-keyboard-response,293,253825,0.0-6.0-5.47,64,,,,,clear_screen,null,null,,,critical,d,t,c,158.0083,227.1683,164,240,240,164,trueblood,0.09,h,164,240,240,164,158.0083,227.1683,39360,39360,35894.4834,tc,null,null,null,null,null,null,"[2,3]"
,canvas-keyboard-response,294,254026,0.0-6.0-0.48,64,,,,,pre trial waiting period,null,null,,,critical,t,c,d,164,240,240,164,162.6685,237.1485,spektor,0.02,h,164,240,240,164,162.6685,237.1485,39360,39360,38576.5967,td,null,null,null,null,null,null,"[1,3]"
,canvas-keyboard-response,295,254186,0.0-6.0-1.48,64,,,,,clear_screen,null,null,,,critical,t,c,d,164,240,240,164,162.6685,237.1485,spektor,0.02,h,164,240,240,164,162.6685,237.1485,39360,39360,38576.5967,td,null,null,null,null,null,null,"[1,3]"
,canvas-keyboard-response,296,255522,0.0-6.0-2.48,64,,,,,rectangles,null,null,,,critical,t,c,d,164,240,240,164,162.6685,237.1485,spektor,0.02,h,164,240,240,164,162.6685,237.1485,39360,39360,38576.5967,td,null,null,null,null,null,null,"[1,3]"
,canvas-keyboard-response,297,255681,0.0-6.0-3.48,64,,,,,clear_screen,null,null,,,critical,t,c,d,164,240,240,164,162.6685,237.1485,spektor,0.02,h,164,240,240,164,162.6685,237.1485,39360,39360,38576.5967,td,null,null,null,null,null,null,"[1,3]"
,canvas-keyboard-response,298,256378,0.0-6.0-4.48,64,,,,,make choice,687,3,,,critical,t,c,d,164,240,240,164,162.6685,237.1485,spektor,0.02,h,164,240,240,164,162.6685,237.1485,39360,39360,38576.5967,td,null,null,null,null,null,null,"[1,3]"
,canvas-keyboard-response,299,256536,0.0-6.0-5.48,64,,,,,clear_screen,null,null,,,critical,t,c,d,164,240,240,164,162.6685,237.1485,spektor,0.02,h,164,240,240,164,162.6685,237.1485,39360,39360,38576.5967,td,null,null,null,null,null,null,"[1,3]"
,canvas-keyboard-response,300,256737,0.0-6.0-0.49,64,,,,,pre trial waiting period,null,null,,,critical,d,c,t,162.6685,237.1485,240,164,164,240,spektor,0.02,h,164,240,240,164,162.6685,237.1485,39360,39360,38576.5967,tc,null,null,null,null,null,null,"[3,2]"
,canvas-keyboard-response,301,256898,0.0-6.0-1.49,64,,,,,clear_screen,null,null,,,critical,d,c,t,162.6685,237.1485,240,164,164,240,spektor,0.02,h,164,240,240,164,162.6685,237.1485,39360,39360,38576.5967,tc,null,null,null,null,null,null,"[3,2]"
,canvas-keyboard-response,302,258233,0.0-6.0-2.49,64,,,,,rectangles,null,null,,,critical,d,c,t,162.6685,237.1485,240,164,164,240,spektor,0.02,h,164,240,240,164,162.6685,237.1485,39360,39360,38576.5967,tc,null,null,null,null,null,null,"[3,2]"
,canvas-keyboard-response,303,258392,0.0-6.0-3.49,64,,,,,clear_screen,null,null,,,critical,d,c,t,162.6685,237.1485,240,164,164,240,spektor,0.02,h,164,240,240,164,162.6685,237.1485,39360,39360,38576.5967,tc,null,null,null,null,null,null,"[3,2]"
,canvas-keyboard-response,304,258930,0.0-6.0-4.49,64,,,,,make choice,529,3,,,critical,d,c,t,162.6685,237.1485,240,164,164,240,spektor,0.02,h,164,240,240,164,162.6685,237.1485,39360,39360,38576.5967,tc,null,null,null,null,null,null,"[3,2]"
,canvas-keyboard-response,305,259088,0.0-6.0-5.49,64,,,,,clear_screen,null,null,,,critical,d,c,t,162.6685,237.1485,240,164,164,240,spektor,0.02,h,164,240,240,164,162.6685,237.1485,39360,39360,38576.5967,tc,null,null,null,null,null,null,"[3,2]"
,canvas-keyboard-response,306,259291,0.0-6.0-0.50,64,,,,,pre trial waiting period,null,null,,,catch,sw,l,sh,180,200,218,294,226,191,trueblood,null,null,null,null,null,null,null,null,null,null,null,,180,200,260,200,36000,52000,"[1,2]"
,canvas-keyboard-response,307,259450,0.0-6.0-1.50,64,,,,,clear_screen,null,null,,,catch,sw,l,sh,180,200,218,294,226,191,trueblood,null,null,null,null,null,null,null,null,null,null,null,,180,200,260,200,36000,52000,"[1,2]"
,canvas-keyboard-response,308,260786,0.0-6.0-2.50,64,,,,,rectangles,null,null,,,catch,sw,l,sh,180,200,218,294,226,191,trueblood,null,null,null,null,null,null,null,null,null,null,null,,180,200,260,200,36000,52000,"[1,2]"
,canvas-keyboard-response,309,260944,0.0-6.0-3.50,64,,,,,clear_screen,null,null,,,catch,sw,l,sh,180,200,218,294,226,191,trueblood,null,null,null,null,null,null,null,null,null,null,null,,180,200,260,200,36000,52000,"[1,2]"
,canvas-keyboard-response,310,261474,0.0-6.0-4.50,64,,,,,make choice,521,2,,,catch,sw,l,sh,180,200,218,294,226,191,trueblood,null,null,null,null,null,null,null,null,null,null,null,,180,200,260,200,36000,52000,"[1,2]"
,canvas-keyboard-response,311,261632,0.0-6.0-5.50,64,,,,,clear_screen,null,null,,,catch,sw,l,sh,180,200,218,294,226,191,trueblood,null,null,null,null,null,null,null,null,null,null,null,,180,200,260,200,36000,52000,"[1,2]"
,canvas-keyboard-response,312,261833,0.0-6.0-0.51,64,,,,,pre trial waiting period,null,null,,,catch,sw,sh,l,180,200,221,176,235,162,trueblood,null,null,null,null,null,null,null,null,null,null,null,,180,200,260,200,36000,52000,"[2,3]"
,canvas-keyboard-response,313,261992,0.0-6.0-1.51,64,,,,,clear_screen,null,null,,,catch,sw,sh,l,180,200,221,176,235,162,trueblood,null,null,null,null,null,null,null,null,null,null,null,,180,200,260,200,36000,52000,"[2,3]"
,canvas-keyboard-response,314,263329,0.0-6.0-2.51,64,,,,,rectangles,null,null,,,catch,sw,sh,l,180,200,221,176,235,162,trueblood,null,null,null,null,null,null,null,null,null,null,null,,180,200,260,200,36000,52000,"[2,3]"
,canvas-keyboard-response,315,263488,0.0-6.0-3.51,64,,,,,clear_screen,null,null,,,catch,sw,sh,l,180,200,221,176,235,162,trueblood,null,null,null,null,null,null,null,null,null,null,null,,180,200,260,200,36000,52000,"[2,3]"
,canvas-keyboard-response,316,264378,0.0-6.0-4.51,64,,,,,make choice,882,2,,,catch,sw,sh,l,180,200,221,176,235,162,trueblood,null,null,null,null,null,null,null,null,null,null,null,,180,200,260,200,36000,52000,"[2,3]"
,canvas-keyboard-response,317,264536,0.0-6.0-5.51,64,,,,,clear_screen,null,null,,,catch,sw,sh,l,180,200,221,176,235,162,trueblood,null,null,null,null,null,null,null,null,null,null,null,,180,200,260,200,36000,52000,"[2,3]"
,canvas-keyboard-response,318,264739,0.0-6.0-0.52,64,,,,,pre trial waiting period,null,null,,,critical,d,t,c,240,164,240,164,164,240,spektor,0,w,240,164,164,240,240,164,39360,39360,39360,tc,null,null,null,null,null,null,"[2,3]"
,canvas-keyboard-response,319,264898,0.0-6.0-1.52,64,,,,,clear_screen,null,null,,,critical,d,t,c,240,164,240,164,164,240,spektor,0,w,240,164,164,240,240,164,39360,39360,39360,tc,null,null,null,null,null,null,"[2,3]"
,canvas-keyboard-response,320,266236,0.0-6.0-2.52,64,,,,,rectangles,null,null,,,critical,d,t,c,240,164,240,164,164,240,spektor,0,w,240,164,164,240,240,164,39360,39360,39360,tc,null,null,null,null,null,null,"[2,3]"
,canvas-keyboard-response,321,266395,0.0-6.0-3.52,64,,,,,clear_screen,null,null,,,critical,d,t,c,240,164,240,164,164,240,spektor,0,w,240,164,164,240,240,164,39360,39360,39360,tc,null,null,null,null,null,null,"[2,3]"
,canvas-keyboard-response,322,267346,0.0-6.0-4.52,64,,,,,make choice,943,2,,,critical,d,t,c,240,164,240,164,164,240,spektor,0,w,240,164,164,240,240,164,39360,39360,39360,tc,null,null,null,null,null,null,"[2,3]"
,canvas-keyboard-response,323,267504,0.0-6.0-5.52,64,,,,,clear_screen,null,null,,,critical,d,t,c,240,164,240,164,164,240,spektor,0,w,240,164,164,240,240,164,39360,39360,39360,tc,null,null,null,null,null,null,"[2,3]"
,canvas-keyboard-response,324,267705,0.0-6.0-0.53,64,,,,,pre trial waiting period,null,null,,,catch,sh,l,sw,167,186,193,223,208,164,trueblood,null,null,null,null,null,null,null,null,null,null,null,,180,200,260,200,36000,52000,"[2,3]"
,canvas-keyboard-response,325,267864,0.0-6.0-1.53,64,,,,,clear_screen,null,null,,,catch,sh,l,sw,167,186,193,223,208,164,trueblood,null,null,null,null,null,null,null,null,null,null,null,,180,200,260,200,36000,52000,"[2,3]"
,canvas-keyboard-response,326,269199,0.0-6.0-2.53,64,,,,,rectangles,null,null,,,catch,sh,l,sw,167,186,193,223,208,164,trueblood,null,null,null,null,null,null,null,null,null,null,null,,180,200,260,200,36000,52000,"[2,3]"
,canvas-keyboard-response,327,269358,0.0-6.0-3.53,64,,,,,clear_screen,null,null,,,catch,sh,l,sw,167,186,193,223,208,164,trueblood,null,null,null,null,null,null,null,null,null,null,null,,180,200,260,200,36000,52000,"[2,3]"
,canvas-keyboard-response,328,269826,0.0-6.0-4.53,64,,,,,make choice,459,2,,,catch,sh,l,sw,167,186,193,223,208,164,trueblood,null,null,null,null,null,null,null,null,null,null,null,,180,200,260,200,36000,52000,"[2,3]"
,canvas-keyboard-response,329,269984,0.0-6.0-5.53,64,,,,,clear_screen,null,null,,,catch,sh,l,sw,167,186,193,223,208,164,trueblood,null,null,null,null,null,null,null,null,null,null,null,,180,200,260,200,36000,52000,"[2,3]"
,canvas-keyboard-response,330,270186,0.0-6.0-0.54,64,,,,,pre trial waiting period,null,null,,,catch,sh,l,sw,178,155,275,213,217,210,spektor,null,null,null,null,null,null,null,null,null,null,null,,180,200,260,200,36000,52000,"[2,3]"
,canvas-keyboard-response,331,270344,0.0-6.0-1.54,64,,,,,clear_screen,null,null,,,catch,sh,l,sw,178,155,275,213,217,210,spektor,null,null,null,null,null,null,null,null,null,null,null,,180,200,260,200,36000,52000,"[2,3]"
,canvas-keyboard-response,332,271679,0.0-6.0-2.54,64,,,,,rectangles,null,null,,,catch,sh,l,sw,178,155,275,213,217,210,spektor,null,null,null,null,null,null,null,null,null,null,null,,180,200,260,200,36000,52000,"[2,3]"
,canvas-keyboard-response,333,271838,0.0-6.0-3.54,64,,,,,clear_screen,null,null,,,catch,sh,l,sw,178,155,275,213,217,210,spektor,null,null,null,null,null,null,null,null,null,null,null,,180,200,260,200,36000,52000,"[2,3]"
,canvas-keyboard-response,334,272242,0.0-6.0-4.54,64,,,,,make choice,396,2,,,catch,sh,l,sw,178,155,275,213,217,210,spektor,null,null,null,null,null,null,null,null,null,null,null,,180,200,260,200,36000,52000,"[2,3]"
,canvas-keyboard-response,335,272400,0.0-6.0-5.54,64,,,,,clear_screen,null,null,,,catch,sh,l,sw,178,155,275,213,217,210,spektor,null,null,null,null,null,null,null,null,null,null,null,,180,200,260,200,36000,52000,"[2,3]"
,canvas-keyboard-response,336,272601,0.0-6.0-0.55,64,,,,,pre trial waiting period,null,null,,,critical,t,d,c,164,240,164,240,240,164,trueblood,0,h,164,240,240,164,164,240,39360,39360,39360,dc,null,null,null,null,null,null,"[2,3]"
,canvas-keyboard-response,337,272760,0.0-6.0-1.55,64,,,,,clear_screen,null,null,,,critical,t,d,c,164,240,164,240,240,164,trueblood,0,h,164,240,240,164,164,240,39360,39360,39360,dc,null,null,null,null,null,null,"[2,3]"
,canvas-keyboard-response,338,274095,0.0-6.0-2.55,64,,,,,rectangles,null,null,,,critical,t,d,c,164,240,164,240,240,164,trueblood,0,h,164,240,240,164,164,240,39360,39360,39360,dc,null,null,null,null,null,null,"[2,3]"
,canvas-keyboard-response,339,274254,0.0-6.0-3.55,64,,,,,clear_screen,null,null,,,critical,t,d,c,164,240,164,240,240,164,trueblood,0,h,164,240,240,164,164,240,39360,39360,39360,dc,null,null,null,null,null,null,"[2,3]"
,canvas-keyboard-response,340,274890,0.0-6.0-4.55,64,,,,,make choice,628,3,,,critical,t,d,c,164,240,164,240,240,164,trueblood,0,h,164,240,240,164,164,240,39360,39360,39360,dc,null,null,null,null,null,null,"[2,3]"
,canvas-keyboard-response,341,275049,0.0-6.0-5.55,64,,,,,clear_screen,null,null,,,critical,t,d,c,164,240,164,240,240,164,trueblood,0,h,164,240,240,164,164,240,39360,39360,39360,dc,null,null,null,null,null,null,"[2,3]"
,canvas-keyboard-response,342,275250,0.0-6.0-0.56,64,,,,,pre trial waiting period,null,null,,,critical,c,d,t,240,164,158.0083,227.1683,164,240,spektor,0.09,h,164,240,240,164,158.0083,227.1683,39360,39360,35894.4834,td,null,null,null,null,null,null,"[3,2]"
,canvas-keyboard-response,343,275409,0.0-6.0-1.56,64,,,,,clear_screen,null,null,,,critical,c,d,t,240,164,158.0083,227.1683,164,240,spektor,0.09,h,164,240,240,164,158.0083,227.1683,39360,39360,35894.4834,td,null,null,null,null,null,null,"[3,2]"
,canvas-keyboard-response,344,276748,0.0-6.0-2.56,64,,,,,rectangles,null,null,,,critical,c,d,t,240,164,158.0083,227.1683,164,240,spektor,0.09,h,164,240,240,164,158.0083,227.1683,39360,39360,35894.4834,td,null,null,null,null,null,null,"[3,2]"
,canvas-keyboard-response,345,276906,0.0-6.0-3.56,64,,,,,clear_screen,null,null,,,critical,c,d,t,240,164,158.0083,227.1683,164,240,spektor,0.09,h,164,240,240,164,158.0083,227.1683,39360,39360,35894.4834,td,null,null,null,null,null,null,"[3,2]"
,canvas-keyboard-response,346,277201,0.0-6.0-4.56,64,,,,,make choice,287,3,,,critical,c,d,t,240,164,158.0083,227.1683,164,240,spektor,0.09,h,164,240,240,164,158.0083,227.1683,39360,39360,35894.4834,td,null,null,null,null,null,null,"[3,2]"
,canvas-keyboard-response,347,277360,0.0-6.0-5.56,64,,,,,clear_screen,null,null,,,critical,c,d,t,240,164,158.0083,227.1683,164,240,spektor,0.09,h,164,240,240,164,158.0083,227.1683,39360,39360,35894.4834,td,null,null,null,null,null,null,"[3,2]"
,canvas-keyboard-response,348,277561,0.0-6.0-0.57,64,,,,,pre trial waiting period,null,null,,,critical,t,d,c,164,240,160.6713,232.8713,240,164,trueblood,0.05,h,164,240,240,164,160.6713,232.8713,39360,39360,37415.7294,td,null,null,null,null,null,null,"[1,2]"
,canvas-keyboard-response,349,277720,0.0-6.0-1.57,64,,,,,clear_screen,null,null,,,critical,t,d,c,164,240,160.6713,232.8713,240,164,trueblood,0.05,h,164,240,240,164,160.6713,232.8713,39360,39360,37415.7294,td,null,null,null,null,null,null,"[1,2]"
,canvas-keyboard-response,350,279055,0.0-6.0-2.57,64,,,,,rectangles,null,null,,,critical,t,d,c,164,240,160.6713,232.8713,240,164,trueblood,0.05,h,164,240,240,164,160.6713,232.8713,39360,39360,37415.7294,td,null,null,null,null,null,null,"[1,2]"
,canvas-keyboard-response,351,279213,0.0-6.0-3.57,64,,,,,clear_screen,null,null,,,critical,t,d,c,164,240,160.6713,232.8713,240,164,trueblood,0.05,h,164,240,240,164,160.6713,232.8713,39360,39360,37415.7294,td,null,null,null,null,null,null,"[1,2]"
,canvas-keyboard-response,352,280018,0.0-6.0-4.57,64,,,,,make choice,796,2,,,critical,t,d,c,164,240,160.6713,232.8713,240,164,trueblood,0.05,h,164,240,240,164,160.6713,232.8713,39360,39360,37415.7294,td,null,null,null,null,null,null,"[1,2]"
,canvas-keyboard-response,353,280176,0.0-6.0-5.57,64,,,,,clear_screen,null,null,,,critical,t,d,c,164,240,160.6713,232.8713,240,164,trueblood,0.05,h,164,240,240,164,160.6713,232.8713,39360,39360,37415.7294,td,null,null,null,null,null,null,"[1,2]"
,canvas-keyboard-response,354,280378,0.0-6.0-0.58,64,,,,,pre trial waiting period,null,null,,,catch,sw,l,sh,180,200,213,242,215,167,spektor,null,null,null,null,null,null,null,null,null,null,null,,180,200,260,200,36000,52000,"[1,2]"
,canvas-keyboard-response,355,280536,0.0-6.0-1.58,64,,,,,clear_screen,null,null,,,catch,sw,l,sh,180,200,213,242,215,167,spektor,null,null,null,null,null,null,null,null,null,null,null,,180,200,260,200,36000,52000,"[1,2]"
,canvas-keyboard-response,356,281872,0.0-6.0-2.58,64,,,,,rectangles,null,null,,,catch,sw,l,sh,180,200,213,242,215,167,spektor,null,null,null,null,null,null,null,null,null,null,null,,180,200,260,200,36000,52000,"[1,2]"
,canvas-keyboard-response,357,282029,0.0-6.0-3.58,64,,,,,clear_screen,null,null,,,catch,sw,l,sh,180,200,213,242,215,167,spektor,null,null,null,null,null,null,null,null,null,null,null,,180,200,260,200,36000,52000,"[1,2]"
,canvas-keyboard-response,358,282466,0.0-6.0-4.58,64,,,,,make choice,428,2,,,catch,sw,l,sh,180,200,213,242,215,167,spektor,null,null,null,null,null,null,null,null,null,null,null,,180,200,260,200,36000,52000,"[1,2]"
,canvas-keyboard-response,359,282624,0.0-6.0-5.58,64,,,,,clear_screen,null,null,,,catch,sw,l,sh,180,200,213,242,215,167,spektor,null,null,null,null,null,null,null,null,null,null,null,,180,200,260,200,36000,52000,"[1,2]"
,canvas-keyboard-response,360,282825,0.0-6.0-0.59,64,,,,,pre trial waiting period,null,null,,,critical,d,c,t,158.0083,227.1683,240,164,164,240,spektor,0.09,h,164,240,240,164,158.0083,227.1683,39360,39360,35894.4834,tc,null,null,null,null,null,null,"[3,2]"
,canvas-keyboard-response,361,282983,0.0-6.0-1.59,64,,,,,clear_screen,null,null,,,critical,d,c,t,158.0083,227.1683,240,164,164,240,spektor,0.09,h,164,240,240,164,158.0083,227.1683,39360,39360,35894.4834,tc,null,null,null,null,null,null,"[3,2]"
,canvas-keyboard-response,362,284319,0.0-6.0-2.59,64,,,,,rectangles,null,null,,,critical,d,c,t,158.0083,227.1683,240,164,164,240,spektor,0.09,h,164,240,240,164,158.0083,227.1683,39360,39360,35894.4834,tc,null,null,null,null,null,null,"[3,2]"
,canvas-keyboard-response,363,284478,0.0-6.0-3.59,64,,,,,clear_screen,null,null,,,critical,d,c,t,158.0083,227.1683,240,164,164,240,spektor,0.09,h,164,240,240,164,158.0083,227.1683,39360,39360,35894.4834,tc,null,null,null,null,null,null,"[3,2]"
,canvas-keyboard-response,364,284890,0.0-6.0-4.59,64,,,,,make choice,405,3,,,critical,d,c,t,158.0083,227.1683,240,164,164,240,spektor,0.09,h,164,240,240,164,158.0083,227.1683,39360,39360,35894.4834,tc,null,null,null,null,null,null,"[3,2]"
,canvas-keyboard-response,365,285048,0.0-6.0-5.59,64,,,,,clear_screen,null,null,,,critical,d,c,t,158.0083,227.1683,240,164,164,240,spektor,0.09,h,164,240,240,164,158.0083,227.1683,39360,39360,35894.4834,tc,null,null,null,null,null,null,"[3,2]"
,canvas-keyboard-response,366,285249,0.0-6.0-0.60,64,,,,,pre trial waiting period,null,null,,,critical,c,t,d,240,164,164,240,154.6796,220.0396,trueblood,0.14,h,164,240,240,164,154.6796,220.0396,39360,39360,34035.6388,td,null,null,null,null,null,null,"[2,3]"
,canvas-keyboard-response,367,285408,0.0-6.0-1.60,64,,,,,clear_screen,null,null,,,critical,c,t,d,240,164,164,240,154.6796,220.0396,trueblood,0.14,h,164,240,240,164,154.6796,220.0396,39360,39360,34035.6388,td,null,null,null,null,null,null,"[2,3]"
,canvas-keyboard-response,368,286744,0.0-6.0-2.60,64,,,,,rectangles,null,null,,,critical,c,t,d,240,164,164,240,154.6796,220.0396,trueblood,0.14,h,164,240,240,164,154.6796,220.0396,39360,39360,34035.6388,td,null,null,null,null,null,null,"[2,3]"
,canvas-keyboard-response,369,286904,0.0-6.0-3.60,64,,,,,clear_screen,null,null,,,critical,c,t,d,240,164,164,240,154.6796,220.0396,trueblood,0.14,h,164,240,240,164,154.6796,220.0396,39360,39360,34035.6388,td,null,null,null,null,null,null,"[2,3]"
,canvas-keyboard-response,370,287746,0.0-6.0-4.60,64,,,,,make choice,830,2,,,critical,c,t,d,240,164,164,240,154.6796,220.0396,trueblood,0.14,h,164,240,240,164,154.6796,220.0396,39360,39360,34035.6388,td,null,null,null,null,null,null,"[2,3]"
,canvas-keyboard-response,371,287905,0.0-6.0-5.60,64,,,,,clear_screen,null,null,,,critical,c,t,d,240,164,164,240,154.6796,220.0396,trueblood,0.14,h,164,240,240,164,154.6796,220.0396,39360,39360,34035.6388,td,null,null,null,null,null,null,"[2,3]"
,canvas-keyboard-response,372,288107,0.0-6.0-0.61,64,,,,,pre trial waiting period,null,null,,,critical,d,c,t,160.6713,232.8713,240,164,164,240,spektor,0.05,h,164,240,240,164,160.6713,232.8713,39360,39360,37415.7294,td,null,null,null,null,null,null,"[3,1]"
,canvas-keyboard-response,373,288267,0.0-6.0-1.61,64,,,,,clear_screen,null,null,,,critical,d,c,t,160.6713,232.8713,240,164,164,240,spektor,0.05,h,164,240,240,164,160.6713,232.8713,39360,39360,37415.7294,td,null,null,null,null,null,null,"[3,1]"
,canvas-keyboard-response,374,289603,0.0-6.0-2.61,64,,,,,rectangles,null,null,,,critical,d,c,t,160.6713,232.8713,240,164,164,240,spektor,0.05,h,164,240,240,164,160.6713,232.8713,39360,39360,37415.7294,td,null,null,null,null,null,null,"[3,1]"
,canvas-keyboard-response,375,289763,0.0-6.0-3.61,64,,,,,clear_screen,null,null,,,critical,d,c,t,160.6713,232.8713,240,164,164,240,spektor,0.05,h,164,240,240,164,160.6713,232.8713,39360,39360,37415.7294,td,null,null,null,null,null,null,"[3,1]"
,canvas-keyboard-response,376,290242,0.0-6.0-4.61,64,,,,,make choice,471,3,,,critical,d,c,t,160.6713,232.8713,240,164,164,240,spektor,0.05,h,164,240,240,164,160.6713,232.8713,39360,39360,37415.7294,td,null,null,null,null,null,null,"[3,1]"
,canvas-keyboard-response,377,290400,0.0-6.0-5.61,64,,,,,clear_screen,null,null,,,critical,d,c,t,160.6713,232.8713,240,164,164,240,spektor,0.05,h,164,240,240,164,160.6713,232.8713,39360,39360,37415.7294,td,null,null,null,null,null,null,"[3,1]"
,canvas-keyboard-response,378,290601,0.0-6.0-0.62,64,,,,,pre trial waiting period,null,null,,,catch,sw,l,sh,180,200,255,208,189,178,trueblood,null,null,null,null,null,null,null,null,null,null,null,,180,200,260,200,36000,52000,"[2,3]"
,canvas-keyboard-response,379,290762,0.0-6.0-1.62,64,,,,,clear_screen,null,null,,,catch,sw,l,sh,180,200,255,208,189,178,trueblood,null,null,null,null,null,null,null,null,null,null,null,,180,200,260,200,36000,52000,"[2,3]"
,canvas-keyboard-response,380,292097,0.0-6.0-2.62,64,,,,,rectangles,null,null,,,catch,sw,l,sh,180,200,255,208,189,178,trueblood,null,null,null,null,null,null,null,null,null,null,null,,180,200,260,200,36000,52000,"[2,3]"
,canvas-keyboard-response,381,292260,0.0-6.0-3.62,64,,,,,clear_screen,null,null,,,catch,sw,l,sh,180,200,255,208,189,178,trueblood,null,null,null,null,null,null,null,null,null,null,null,,180,200,260,200,36000,52000,"[2,3]"
,canvas-keyboard-response,382,292729,0.0-6.0-4.62,64,,,,,make choice,461,2,,,catch,sw,l,sh,180,200,255,208,189,178,trueblood,null,null,null,null,null,null,null,null,null,null,null,,180,200,260,200,36000,52000,"[2,3]"
,canvas-keyboard-response,383,292888,0.0-6.0-5.62,64,,,,,clear_screen,null,null,,,catch,sw,l,sh,180,200,255,208,189,178,trueblood,null,null,null,null,null,null,null,null,null,null,null,,180,200,260,200,36000,52000,"[2,3]"
,canvas-keyboard-response,384,293090,0.0-6.0-0.63,64,,,,,pre trial waiting period,null,null,,,catch,sw,sh,l,180,200,226,192,180,287,spektor,null,null,null,null,null,null,null,null,null,null,null,,180,200,260,200,36000,52000,"[1,3]"
,canvas-keyboard-response,385,293249,0.0-6.0-1.63,64,,,,,clear_screen,null,null,,,catch,sw,sh,l,180,200,226,192,180,287,spektor,null,null,null,null,null,null,null,null,null,null,null,,180,200,260,200,36000,52000,"[1,3]"
,canvas-keyboard-response,386,294584,0.0-6.0-2.63,64,,,,,rectangles,null,null,,,catch,sw,sh,l,180,200,226,192,180,287,spektor,null,null,null,null,null,null,null,null,null,null,null,,180,200,260,200,36000,52000,"[1,3]"
,canvas-keyboard-response,387,294743,0.0-6.0-3.63,64,,,,,clear_screen,null,null,,,catch,sw,sh,l,180,200,226,192,180,287,spektor,null,null,null,null,null,null,null,null,null,null,null,,180,200,260,200,36000,52000,"[1,3]"
,canvas-keyboard-response,388,295145,0.0-6.0-4.63,64,,,,,make choice,393,3,,,catch,sw,sh,l,180,200,226,192,180,287,spektor,null,null,null,null,null,null,null,null,null,null,null,,180,200,260,200,36000,52000,"[1,3]"
,canvas-keyboard-response,389,295305,0.0-6.0-5.63,64,,,,,clear_screen,null,null,,,catch,sw,sh,l,180,200,226,192,180,287,spektor,null,null,null,null,null,null,null,null,null,null,null,,180,200,260,200,36000,52000,"[1,3]"
,canvas-keyboard-response,390,295506,0.0-6.0-0.64,64,,,,,pre trial waiting period,null,null,,,critical,d,t,c,232.8713,160.6713,240,164,164,240,trueblood,0.05,w,240,164,164,240,232.8713,160.6713,39360,39360,37415.7294,td,null,null,null,null,null,null,"[2,1]"
,canvas-keyboard-response,391,295665,0.0-6.0-1.64,64,,,,,clear_screen,null,null,,,critical,d,t,c,232.8713,160.6713,240,164,164,240,trueblood,0.05,w,240,164,164,240,232.8713,160.6713,39360,39360,37415.7294,td,null,null,null,null,null,null,"[2,1]"
,canvas-keyboard-response,392,297001,0.0-6.0-2.64,64,,,,,rectangles,null,null,,,critical,d,t,c,232.8713,160.6713,240,164,164,240,trueblood,0.05,w,240,164,164,240,232.8713,160.6713,39360,39360,37415.7294,td,null,null,null,null,null,null,"[2,1]"
,canvas-keyboard-response,393,297159,0.0-6.0-3.64,64,,,,,clear_screen,null,null,,,critical,d,t,c,232.8713,160.6713,240,164,164,240,trueblood,0.05,w,240,164,164,240,232.8713,160.6713,39360,39360,37415.7294,td,null,null,null,null,null,null,"[2,1]"
,canvas-keyboard-response,394,297458,0.0-6.0-4.64,64,,,,,make choice,290,2,,,critical,d,t,c,232.8713,160.6713,240,164,164,240,trueblood,0.05,w,240,164,164,240,232.8713,160.6713,39360,39360,37415.7294,td,null,null,null,null,null,null,"[2,1]"
,canvas-keyboard-response,395,297615,0.0-6.0-5.64,64,,,,,clear_screen,null,null,,,critical,d,t,c,232.8713,160.6713,240,164,164,240,trueblood,0.05,w,240,164,164,240,232.8713,160.6713,39360,39360,37415.7294,td,null,null,null,null,null,null,"[2,1]"
,canvas-keyboard-response,396,297817,0.0-6.0-0.65,64,,,,,pre trial waiting period,null,null,,,catch,l,sh,sw,166,226,181,200,169,224,trueblood,null,null,null,null,null,null,null,null,null,null,null,,180,200,260,200,36000,52000,"[1,3]"
,canvas-keyboard-response,397,297976,0.0-6.0-1.65,64,,,,,clear_screen,null,null,,,catch,l,sh,sw,166,226,181,200,169,224,trueblood,null,null,null,null,null,null,null,null,null,null,null,,180,200,260,200,36000,52000,"[1,3]"
,canvas-keyboard-response,398,299312,0.0-6.0-2.65,64,,,,,rectangles,null,null,,,catch,l,sh,sw,166,226,181,200,169,224,trueblood,null,null,null,null,null,null,null,null,null,null,null,,180,200,260,200,36000,52000,"[1,3]"
,canvas-keyboard-response,399,299470,0.0-6.0-3.65,64,,,,,clear_screen,null,null,,,catch,l,sh,sw,166,226,181,200,169,224,trueblood,null,null,null,null,null,null,null,null,null,null,null,,180,200,260,200,36000,52000,"[1,3]"
,canvas-keyboard-response,400,300138,0.0-6.0-4.65,64,,,,,make choice,660,3,,,catch,l,sh,sw,166,226,181,200,169,224,trueblood,null,null,null,null,null,null,null,null,null,null,null,,180,200,260,200,36000,52000,"[1,3]"
,canvas-keyboard-response,401,300295,0.0-6.0-5.65,64,,,,,clear_screen,null,null,,,catch,l,sh,sw,166,226,181,200,169,224,trueblood,null,null,null,null,null,null,null,null,null,null,null,,180,200,260,200,36000,52000,"[1,3]"
,canvas-keyboard-response,402,300497,0.0-6.0-0.66,64,,,,,pre trial waiting period,null,null,,,critical,d,c,t,232.8713,160.6713,164,240,240,164,spektor,0.05,w,240,164,164,240,232.8713,160.6713,39360,39360,37415.7294,dc,null,null,null,null,null,null,"[1,2]"
,canvas-keyboard-response,403,300656,0.0-6.0-1.66,64,,,,,clear_screen,null,null,,,critical,d,c,t,232.8713,160.6713,164,240,240,164,spektor,0.05,w,240,164,164,240,232.8713,160.6713,39360,39360,37415.7294,dc,null,null,null,null,null,null,"[1,2]"
,canvas-keyboard-response,404,301991,0.0-6.0-2.66,64,,,,,rectangles,null,null,,,critical,d,c,t,232.8713,160.6713,164,240,240,164,spektor,0.05,w,240,164,164,240,232.8713,160.6713,39360,39360,37415.7294,dc,null,null,null,null,null,null,"[1,2]"
,canvas-keyboard-response,405,302150,0.0-6.0-3.66,64,,,,,clear_screen,null,null,,,critical,d,c,t,232.8713,160.6713,164,240,240,164,spektor,0.05,w,240,164,164,240,232.8713,160.6713,39360,39360,37415.7294,dc,null,null,null,null,null,null,"[1,2]"
,canvas-keyboard-response,406,302625,0.0-6.0-4.66,64,,,,,make choice,466,2,,,critical,d,c,t,232.8713,160.6713,164,240,240,164,spektor,0.05,w,240,164,164,240,232.8713,160.6713,39360,39360,37415.7294,dc,null,null,null,null,null,null,"[1,2]"
,canvas-keyboard-response,407,302784,0.0-6.0-5.66,64,,,,,clear_screen,null,null,,,critical,d,c,t,232.8713,160.6713,164,240,240,164,spektor,0.05,w,240,164,164,240,232.8713,160.6713,39360,39360,37415.7294,dc,null,null,null,null,null,null,"[1,2]"
,canvas-keyboard-response,408,302986,0.0-6.0-0.67,64,,,,,pre trial waiting period,null,null,,,critical,c,d,t,164,240,227.1683,158.0083,240,164,spektor,0.09,w,240,164,164,240,227.1683,158.0083,39360,39360,35894.4834,tc,null,null,null,null,null,null,"[3,1]"
,canvas-keyboard-response,409,303145,0.0-6.0-1.67,64,,,,,clear_screen,null,null,,,critical,c,d,t,164,240,227.1683,158.0083,240,164,spektor,0.09,w,240,164,164,240,227.1683,158.0083,39360,39360,35894.4834,tc,null,null,null,null,null,null,"[3,1]"
,canvas-keyboard-response,410,304480,0.0-6.0-2.67,64,,,,,rectangles,null,null,,,critical,c,d,t,164,240,227.1683,158.0083,240,164,spektor,0.09,w,240,164,164,240,227.1683,158.0083,39360,39360,35894.4834,tc,null,null,null,null,null,null,"[3,1]"
,canvas-keyboard-response,411,304639,0.0-6.0-3.67,64,,,,,clear_screen,null,null,,,critical,c,d,t,164,240,227.1683,158.0083,240,164,spektor,0.09,w,240,164,164,240,227.1683,158.0083,39360,39360,35894.4834,tc,null,null,null,null,null,null,"[3,1]"
,canvas-keyboard-response,412,305114,0.0-6.0-4.67,64,,,,,make choice,467,1,,,critical,c,d,t,164,240,227.1683,158.0083,240,164,spektor,0.09,w,240,164,164,240,227.1683,158.0083,39360,39360,35894.4834,tc,null,null,null,null,null,null,"[3,1]"
,canvas-keyboard-response,413,305272,0.0-6.0-5.67,64,,,,,clear_screen,null,null,,,critical,c,d,t,164,240,227.1683,158.0083,240,164,spektor,0.09,w,240,164,164,240,227.1683,158.0083,39360,39360,35894.4834,tc,null,null,null,null,null,null,"[3,1]"
,canvas-keyboard-response,414,305473,0.0-6.0-0.68,64,,,,,pre trial waiting period,null,null,,,critical,c,d,t,240,164,164,240,164,240,spektor,0,h,164,240,240,164,164,240,39360,39360,39360,td,null,null,null,null,null,null,"[3,2]"
,canvas-keyboard-response,415,305632,0.0-6.0-1.68,64,,,,,clear_screen,null,null,,,critical,c,d,t,240,164,164,240,164,240,spektor,0,h,164,240,240,164,164,240,39360,39360,39360,td,null,null,null,null,null,null,"[3,2]"
,canvas-keyboard-response,416,306967,0.0-6.0-2.68,64,,,,,rectangles,null,null,,,critical,c,d,t,240,164,164,240,164,240,spektor,0,h,164,240,240,164,164,240,39360,39360,39360,td,null,null,null,null,null,null,"[3,2]"
,canvas-keyboard-response,417,307126,0.0-6.0-3.68,64,,,,,clear_screen,null,null,,,critical,c,d,t,240,164,164,240,164,240,spektor,0,h,164,240,240,164,164,240,39360,39360,39360,td,null,null,null,null,null,null,"[3,2]"
,canvas-keyboard-response,418,307794,0.0-6.0-4.68,64,,,,,make choice,660,3,,,critical,c,d,t,240,164,164,240,164,240,spektor,0,h,164,240,240,164,164,240,39360,39360,39360,td,null,null,null,null,null,null,"[3,2]"
,canvas-keyboard-response,419,307952,0.0-6.0-5.68,64,,,,,clear_screen,null,null,,,critical,c,d,t,240,164,164,240,164,240,spektor,0,h,164,240,240,164,164,240,39360,39360,39360,td,null,null,null,null,null,null,"[3,2]"
,canvas-keyboard-response,420,308153,0.0-6.0-0.69,64,,,,,pre trial waiting period,null,null,,,catch,sw,l,sh,180,200,170,234,186,166,spektor,null,null,null,null,null,null,null,null,null,null,null,,180,200,260,200,36000,52000,"[1,2]"
,canvas-keyboard-response,421,308312,0.0-6.0-1.69,64,,,,,clear_screen,null,null,,,catch,sw,l,sh,180,200,170,234,186,166,spektor,null,null,null,null,null,null,null,null,null,null,null,,180,200,260,200,36000,52000,"[1,2]"
,canvas-keyboard-response,422,309648,0.0-6.0-2.69,64,,,,,rectangles,null,null,,,catch,sw,l,sh,180,200,170,234,186,166,spektor,null,null,null,null,null,null,null,null,null,null,null,,180,200,260,200,36000,52000,"[1,2]"
