success,trial_type,trial_index,time_elapsed,internal_node_id,sub_n,timeout,failed_images,failed_audio,failed_video,screen_id,rt,response,stimulus,view_history,trial,r1,r2,r3,w1,h1,w2,h2,w3,h3,display,tdd,tdo,tw,th,cw,ch,dw,dh,ta,ca,da,probe,csls,csss,clls,clss,sa,la,probe_rects
TRUE,fullscreen,0,4503,0.0-0.0,5017,NA,NA,NA,NA,NA,NA,NA,NA,NA,NA,NA,NA,NA,NA,NA,NA,NA,NA,NA,NA,NA,NA,NA,NA,NA,NA,NA,NA,NA,NA,NA,NA,NA,NA,NA,NA,NA,NA,NA
TRUE,preload,1,4520,0.0-1.0,5017,FALSE,NA,NA,NA,img preload,NA,NA,NA,NA,NA,NA,NA,NA,NA,NA,NA,NA,NA,NA,NA,NA,NA,NA,NA,NA,NA,NA,NA,NA,NA,NA,NA,NA,NA,NA,NA,NA,NA,NA
NA,survey-html-form,2,9939,0.0-2.0,5017,NA,NA,NA,NA,enter-sub-number,5409,"{""response"":""09""}",NA,NA,NA,NA,NA,NA,NA,NA,NA,NA,NA,NA,NA,NA,NA,NA,NA,NA,NA,NA,NA,NA,NA,NA,NA,NA,NA,NA,NA,NA,NA,NA
NA,image-button-response,3,128751,0.0-3.0,5017,NA,NA,NA,NA,NA,118748,0,consent.png,NA,NA,NA,NA,NA,NA,NA,NA,NA,NA,NA,NA,NA,NA,NA,NA,NA,NA,NA,NA,NA,NA,NA,NA,NA,NA,NA,NA,NA,NA,NA
NA,html-button-response,4,142766,0.0-4.0,5017,NA,NA,NA,NA,intro mssg,14008,0,"<div style= ""font-size:25px;"" <p> <strong> Welcome! </strong><br> <p style=""color:#8B0000; font-size:25px;""><strong> Please do NOT exit full screen until you are done with the experiment. </strong> </p><p style=""font-size:25px;color:#8B0000;""> <strong> Your data will be lost <br> if you try to go back or refresh the page after the experiment starts. Feel free to click ""previous"" during the instructions, however.</strong> </p><br><p> <strong> Thanks in advance for your contribution to our research! </strong></p>",NA,NA,NA,NA,NA,NA,NA,NA,NA,NA,NA,NA,NA,NA,NA,NA,NA,NA,NA,NA,NA,NA,NA,NA,NA,NA,NA,NA,NA,NA,NA
NA,instructions,5,220767,0.0-5.0,5017,NA,NA,NA,NA,instructions,77997,NA,NA,NA,NA,NA,NA,NA,NA,NA,NA,NA,NA,NA,NA,NA,NA,NA,NA,NA,NA,NA,NA,NA,NA,NA,NA,NA,NA,NA,NA,NA,NA,NA
NA,canvas-keyboard-response,6,220970,0.0-6.0-0.0,5017,NA,NA,NA,NA,pre trial waiting period,null,null,NA,NA,critical,d,c,t,232.8713,160.6713,164,240,240,164,trueblood,0.05,w,240,164,164,240,232.8713,160.6713,39360,39360,37415.7294,dc,null,null,null,null,null,null,"[1,2]"
NA,canvas-keyboard-response,7,221134,0.0-6.0-1.0,5017,NA,NA,NA,NA,clear_screen,null,null,NA,NA,critical,d,c,t,232.8713,160.6713,164,240,240,164,trueblood,0.05,w,240,164,164,240,232.8713,160.6713,39360,39360,37415.7294,dc,null,null,null,null,null,null,"[1,2]"
NA,canvas-keyboard-response,8,222480,0.0-6.0-2.0,5017,NA,NA,NA,NA,rectangles,null,null,NA,NA,critical,d,c,t,232.8713,160.6713,164,240,240,164,trueblood,0.05,w,240,164,164,240,232.8713,160.6713,39360,39360,37415.7294,dc,null,null,null,null,null,null,"[1,2]"
NA,canvas-keyboard-response,9,222644,0.0-6.0-3.0,5017,NA,NA,NA,NA,clear_screen,null,null,NA,NA,critical,d,c,t,232.8713,160.6713,164,240,240,164,trueblood,0.05,w,240,164,164,240,232.8713,160.6713,39360,39360,37415.7294,dc,null,null,null,null,null,null,"[1,2]"
NA,canvas-keyboard-response,10,225494,0.0-6.0-4.0,5017,NA,NA,NA,NA,make choice,2836,1,NA,NA,critical,d,c,t,232.8713,160.6713,164,240,240,164,trueblood,0.05,w,240,164,164,240,232.8713,160.6713,39360,39360,37415.7294,dc,null,null,null,null,null,null,"[1,2]"
NA,canvas-keyboard-response,11,225657,0.0-6.0-5.0,5017,NA,NA,NA,NA,clear_screen,null,null,NA,NA,critical,d,c,t,232.8713,160.6713,164,240,240,164,trueblood,0.05,w,240,164,164,240,232.8713,160.6713,39360,39360,37415.7294,dc,null,null,null,null,null,null,"[1,2]"
NA,canvas-keyboard-response,12,225861,0.0-6.0-0.1,5017,NA,NA,NA,NA,pre trial waiting period,null,null,NA,NA,catch,l,sh,sw,222,247,171,178,199,160,trueblood,null,null,null,null,null,null,null,null,null,null,null,NA,180,200,260,200,36000,52000,"[1,2]"
NA,canvas-keyboard-response,13,226022,0.0-6.0-1.1,5017,NA,NA,NA,NA,clear_screen,null,null,NA,NA,catch,l,sh,sw,222,247,171,178,199,160,trueblood,null,null,null,null,null,null,null,null,null,null,null,NA,180,200,260,200,36000,52000,"[1,2]"
NA,canvas-keyboard-response,14,227363,0.0-6.0-2.1,5017,NA,NA,NA,NA,rectangles,null,null,NA,NA,catch,l,sh,sw,222,247,171,178,199,160,trueblood,null,null,null,null,null,null,null,null,null,null,null,NA,180,200,260,200,36000,52000,"[1,2]"
NA,canvas-keyboard-response,15,227525,0.0-6.0-3.1,5017,NA,NA,NA,NA,clear_screen,null,null,NA,NA,catch,l,sh,sw,222,247,171,178,199,160,trueblood,null,null,null,null,null,null,null,null,null,null,null,NA,180,200,260,200,36000,52000,"[1,2]"
NA,canvas-keyboard-response,16,229374,0.0-6.0-4.1,5017,NA,NA,NA,NA,make choice,1836,1,NA,NA,catch,l,sh,sw,222,247,171,178,199,160,trueblood,null,null,null,null,null,null,null,null,null,null,null,NA,180,200,260,200,36000,52000,"[1,2]"
NA,canvas-keyboard-response,17,229537,0.0-6.0-5.1,5017,NA,NA,NA,NA,clear_screen,null,null,NA,NA,catch,l,sh,sw,222,247,171,178,199,160,trueblood,null,null,null,null,null,null,null,null,null,null,null,NA,180,200,260,200,36000,52000,"[1,2]"
NA,canvas-keyboard-response,18,229750,0.0-6.0-0.2,5017,NA,NA,NA,NA,pre trial waiting period,null,null,NA,NA,critical,d,c,t,154.6796,220.0396,240,164,164,240,spektor,0.14,h,164,240,240,164,154.6796,220.0396,39360,39360,34035.6388,dc,null,null,null,null,null,null,"[1,2]"
NA,canvas-keyboard-response,19,229910,0.0-6.0-1.2,5017,NA,NA,NA,NA,clear_screen,null,null,NA,NA,critical,d,c,t,154.6796,220.0396,240,164,164,240,spektor,0.14,h,164,240,240,164,154.6796,220.0396,39360,39360,34035.6388,dc,null,null,null,null,null,null,"[1,2]"
NA,canvas-keyboard-response,20,231250,0.0-6.0-2.2,5017,NA,NA,NA,NA,rectangles,null,null,NA,NA,critical,d,c,t,154.6796,220.0396,240,164,164,240,spektor,0.14,h,164,240,240,164,154.6796,220.0396,39360,39360,34035.6388,dc,null,null,null,null,null,null,"[1,2]"
NA,canvas-keyboard-response,21,231411,0.0-6.0-3.2,5017,NA,NA,NA,NA,clear_screen,null,null,NA,NA,critical,d,c,t,154.6796,220.0396,240,164,164,240,spektor,0.14,h,164,240,240,164,154.6796,220.0396,39360,39360,34035.6388,dc,null,null,null,null,null,null,"[1,2]"
NA,canvas-keyboard-response,22,235414,0.0-6.0-4.2,5017,NA,NA,NA,NA,make choice,3991,2,NA,NA,critical,d,c,t,154.6796,220.0396,240,164,164,240,spektor,0.14,h,164,240,240,164,154.6796,220.0396,39360,39360,34035.6388,dc,null,null,null,null,null,null,"[1,2]"
NA,canvas-keyboard-response,23,235578,0.0-6.0-5.2,5017,NA,NA,NA,NA,clear_screen,null,null,NA,NA,critical,d,c,t,154.6796,220.0396,240,164,164,240,spektor,0.14,h,164,240,240,164,154.6796,220.0396,39360,39360,34035.6388,dc,null,null,null,null,null,null,"[1,2]"
NA,canvas-keyboard-response,24,235786,0.0-6.0-0.3,5017,NA,NA,NA,NA,pre trial waiting period,null,null,NA,NA,critical,c,t,d,164,240,240,164,232.8713,160.6713,trueblood,0.05,w,240,164,164,240,232.8713,160.6713,39360,39360,37415.7294,td,null,null,null,null,null,null,"[2,3]"
NA,canvas-keyboard-response,25,235945,0.0-6.0-1.3,5017,NA,NA,NA,NA,clear_screen,null,null,NA,NA,critical,c,t,d,164,240,240,164,232.8713,160.6713,trueblood,0.05,w,240,164,164,240,232.8713,160.6713,39360,39360,37415.7294,td,null,null,null,null,null,null,"[2,3]"
NA,canvas-keyboard-response,26,237284,0.0-6.0-2.3,5017,NA,NA,NA,NA,rectangles,null,null,NA,NA,critical,c,t,d,164,240,240,164,232.8713,160.6713,trueblood,0.05,w,240,164,164,240,232.8713,160.6713,39360,39360,37415.7294,td,null,null,null,null,null,null,"[2,3]"
NA,canvas-keyboard-response,27,237445,0.0-6.0-3.3,5017,NA,NA,NA,NA,clear_screen,null,null,NA,NA,critical,c,t,d,164,240,240,164,232.8713,160.6713,trueblood,0.05,w,240,164,164,240,232.8713,160.6713,39360,39360,37415.7294,td,null,null,null,null,null,null,"[2,3]"
NA,canvas-keyboard-response,28,240414,0.0-6.0-4.3,5017,NA,NA,NA,NA,make choice,2953,2,NA,NA,critical,c,t,d,164,240,240,164,232.8713,160.6713,trueblood,0.05,w,240,164,164,240,232.8713,160.6713,39360,39360,37415.7294,td,null,null,null,null,null,null,"[2,3]"
NA,canvas-keyboard-response,29,240576,0.0-6.0-5.3,5017,NA,NA,NA,NA,clear_screen,null,null,NA,NA,critical,c,t,d,164,240,240,164,232.8713,160.6713,trueblood,0.05,w,240,164,164,240,232.8713,160.6713,39360,39360,37415.7294,td,null,null,null,null,null,null,"[2,3]"
NA,canvas-keyboard-response,30,240784,0.0-6.0-0.4,5017,NA,NA,NA,NA,pre trial waiting period,null,null,NA,NA,critical,t,d,c,164,240,162.6685,237.1485,240,164,spektor,0.02,h,164,240,240,164,162.6685,237.1485,39360,39360,38576.5967,tc,null,null,null,null,null,null,"[1,3]"
NA,canvas-keyboard-response,31,240940,0.0-6.0-1.4,5017,NA,NA,NA,NA,clear_screen,null,null,NA,NA,critical,t,d,c,164,240,162.6685,237.1485,240,164,spektor,0.02,h,164,240,240,164,162.6685,237.1485,39360,39360,38576.5967,tc,null,null,null,null,null,null,"[1,3]"
NA,canvas-keyboard-response,32,242278,0.0-6.0-2.4,5017,NA,NA,NA,NA,rectangles,null,null,NA,NA,critical,t,d,c,164,240,162.6685,237.1485,240,164,spektor,0.02,h,164,240,240,164,162.6685,237.1485,39360,39360,38576.5967,tc,null,null,null,null,null,null,"[1,3]"
NA,canvas-keyboard-response,33,242439,0.0-6.0-3.4,5017,NA,NA,NA,NA,clear_screen,null,null,NA,NA,critical,t,d,c,164,240,162.6685,237.1485,240,164,spektor,0.02,h,164,240,240,164,162.6685,237.1485,39360,39360,38576.5967,tc,null,null,null,null,null,null,"[1,3]"
NA,canvas-keyboard-response,34,244430,0.0-6.0-4.4,5017,NA,NA,NA,NA,make choice,1979,1,NA,NA,critical,t,d,c,164,240,162.6685,237.1485,240,164,spektor,0.02,h,164,240,240,164,162.6685,237.1485,39360,39360,38576.5967,tc,null,null,null,null,null,null,"[1,3]"
NA,canvas-keyboard-response,35,244591,0.0-6.0-5.4,5017,NA,NA,NA,NA,clear_screen,null,null,NA,NA,critical,t,d,c,164,240,162.6685,237.1485,240,164,spektor,0.02,h,164,240,240,164,162.6685,237.1485,39360,39360,38576.5967,tc,null,null,null,null,null,null,"[1,3]"
NA,canvas-keyboard-response,36,244798,0.0-6.0-0.5,5017,NA,NA,NA,NA,pre trial waiting period,null,null,NA,NA,critical,d,t,c,158.0083,227.1683,164,240,240,164,spektor,0.09,h,164,240,240,164,158.0083,227.1683,39360,39360,35894.4834,tc,null,null,null,null,null,null,"[2,3]"
NA,canvas-keyboard-response,37,244960,0.0-6.0-1.5,5017,NA,NA,NA,NA,clear_screen,null,null,NA,NA,critical,d,t,c,158.0083,227.1683,164,240,240,164,spektor,0.09,h,164,240,240,164,158.0083,227.1683,39360,39360,35894.4834,tc,null,null,null,null,null,null,"[2,3]"
NA,canvas-keyboard-response,38,246295,0.0-6.0-2.5,5017,NA,NA,NA,NA,rectangles,null,null,NA,NA,critical,d,t,c,158.0083,227.1683,164,240,240,164,spektor,0.09,h,164,240,240,164,158.0083,227.1683,39360,39360,35894.4834,tc,null,null,null,null,null,null,"[2,3]"
NA,canvas-keyboard-response,39,246458,0.0-6.0-3.5,5017,NA,NA,NA,NA,clear_screen,null,null,NA,NA,critical,d,t,c,158.0083,227.1683,164,240,240,164,spektor,0.09,h,164,240,240,164,158.0083,227.1683,39360,39360,35894.4834,tc,null,null,null,null,null,null,"[2,3]"
NA,canvas-keyboard-response,40,247885,0.0-6.0-4.5,5017,NA,NA,NA,NA,make choice,1413,2,NA,NA,critical,d,t,c,158.0083,227.1683,164,240,240,164,spektor,0.09,h,164,240,240,164,158.0083,227.1683,39360,39360,35894.4834,tc,null,null,null,null,null,null,"[2,3]"
NA,canvas-keyboard-response,41,248047,0.0-6.0-5.5,5017,NA,NA,NA,NA,clear_screen,null,null,NA,NA,critical,d,t,c,158.0083,227.1683,164,240,240,164,spektor,0.09,h,164,240,240,164,158.0083,227.1683,39360,39360,35894.4834,tc,null,null,null,null,null,null,"[2,3]"
NA,canvas-keyboard-response,42,248253,0.0-6.0-0.6,5017,NA,NA,NA,NA,pre trial waiting period,null,null,NA,NA,critical,c,d,t,240,164,164,240,164,240,spektor,0,h,164,240,240,164,164,240,39360,39360,39360,td,null,null,null,null,null,null,"[3,2]"
NA,canvas-keyboard-response,43,248410,0.0-6.0-1.6,5017,NA,NA,NA,NA,clear_screen,null,null,NA,NA,critical,c,d,t,240,164,164,240,164,240,spektor,0,h,164,240,240,164,164,240,39360,39360,39360,td,null,null,null,null,null,null,"[3,2]"
NA,canvas-keyboard-response,44,249751,0.0-6.0-2.6,5017,NA,NA,NA,NA,rectangles,null,null,NA,NA,critical,c,d,t,240,164,164,240,164,240,spektor,0,h,164,240,240,164,164,240,39360,39360,39360,td,null,null,null,null,null,null,"[3,2]"
NA,canvas-keyboard-response,45,249911,0.0-6.0-3.6,5017,NA,NA,NA,NA,clear_screen,null,null,NA,NA,critical,c,d,t,240,164,164,240,164,240,spektor,0,h,164,240,240,164,164,240,39360,39360,39360,td,null,null,null,null,null,null,"[3,2]"
NA,canvas-keyboard-response,46,251630,0.0-6.0-4.6,5017,NA,NA,NA,NA,make choice,1706,2,NA,NA,critical,c,d,t,240,164,164,240,164,240,spektor,0,h,164,240,240,164,164,240,39360,39360,39360,td,null,null,null,null,null,null,"[3,2]"
NA,canvas-keyboard-response,47,251792,0.0-6.0-5.6,5017,NA,NA,NA,NA,clear_screen,null,null,NA,NA,critical,c,d,t,240,164,164,240,164,240,spektor,0,h,164,240,240,164,164,240,39360,39360,39360,td,null,null,null,null,null,null,"[3,2]"
NA,canvas-keyboard-response,48,252001,0.0-6.0-0.7,5017,NA,NA,NA,NA,pre trial waiting period,null,null,NA,NA,catch,sw,l,sh,180,200,203,254,176,185,spektor,null,null,null,null,null,null,null,null,null,null,null,NA,180,200,260,200,36000,52000,"[2,3]"
NA,canvas-keyboard-response,49,252163,0.0-6.0-1.7,5017,NA,NA,NA,NA,clear_screen,null,null,NA,NA,catch,sw,l,sh,180,200,203,254,176,185,spektor,null,null,null,null,null,null,null,null,null,null,null,NA,180,200,260,200,36000,52000,"[2,3]"
NA,canvas-keyboard-response,50,253501,0.0-6.0-2.7,5017,NA,NA,NA,NA,rectangles,null,null,NA,NA,catch,sw,l,sh,180,200,203,254,176,185,spektor,null,null,null,null,null,null,null,null,null,null,null,NA,180,200,260,200,36000,52000,"[2,3]"
NA,canvas-keyboard-response,51,253668,0.0-6.0-3.7,5017,NA,NA,NA,NA,clear_screen,null,null,NA,NA,catch,sw,l,sh,180,200,203,254,176,185,spektor,null,null,null,null,null,null,null,null,null,null,null,NA,180,200,260,200,36000,52000,"[2,3]"
NA,canvas-keyboard-response,52,255078,0.0-6.0-4.7,5017,NA,NA,NA,NA,make choice,1397,2,NA,NA,catch,sw,l,sh,180,200,203,254,176,185,spektor,null,null,null,null,null,null,null,null,null,null,null,NA,180,200,260,200,36000,52000,"[2,3]"
NA,canvas-keyboard-response,53,255241,0.0-6.0-5.7,5017,NA,NA,NA,NA,clear_screen,null,null,NA,NA,catch,sw,l,sh,180,200,203,254,176,185,spektor,null,null,null,null,null,null,null,null,null,null,null,NA,180,200,260,200,36000,52000,"[2,3]"
NA,canvas-keyboard-response,54,255449,0.0-6.0-0.8,5017,NA,NA,NA,NA,pre trial waiting period,null,null,NA,NA,critical,c,d,t,164,240,227.1683,158.0083,240,164,spektor,0.09,w,240,164,164,240,227.1683,158.0083,39360,39360,35894.4834,td,null,null,null,null,null,null,"[3,2]"
NA,canvas-keyboard-response,55,255607,0.0-6.0-1.8,5017,NA,NA,NA,NA,clear_screen,null,null,NA,NA,critical,c,d,t,164,240,227.1683,158.0083,240,164,spektor,0.09,w,240,164,164,240,227.1683,158.0083,39360,39360,35894.4834,td,null,null,null,null,null,null,"[3,2]"
NA,canvas-keyboard-response,56,256949,0.0-6.0-2.8,5017,NA,NA,NA,NA,rectangles,null,null,NA,NA,critical,c,d,t,164,240,227.1683,158.0083,240,164,spektor,0.09,w,240,164,164,240,227.1683,158.0083,39360,39360,35894.4834,td,null,null,null,null,null,null,"[3,2]"
NA,canvas-keyboard-response,57,257110,0.0-6.0-3.8,5017,NA,NA,NA,NA,clear_screen,null,null,NA,NA,critical,c,d,t,164,240,227.1683,158.0083,240,164,spektor,0.09,w,240,164,164,240,227.1683,158.0083,39360,39360,35894.4834,td,null,null,null,null,null,null,"[3,2]"
NA,canvas-keyboard-response,58,259022,0.0-6.0-4.8,5017,NA,NA,NA,NA,make choice,1896,3,NA,NA,critical,c,d,t,164,240,227.1683,158.0083,240,164,spektor,0.09,w,240,164,164,240,227.1683,158.0083,39360,39360,35894.4834,td,null,null,null,null,null,null,"[3,2]"
NA,canvas-keyboard-response,59,259183,0.0-6.0-5.8,5017,NA,NA,NA,NA,clear_screen,null,null,NA,NA,critical,c,d,t,164,240,227.1683,158.0083,240,164,spektor,0.09,w,240,164,164,240,227.1683,158.0083,39360,39360,35894.4834,td,null,null,null,null,null,null,"[3,2]"
NA,canvas-keyboard-response,60,259393,0.0-6.0-0.9,5017,NA,NA,NA,NA,pre trial waiting period,null,null,NA,NA,critical,t,c,d,164,240,240,164,164,240,spektor,0,h,164,240,240,164,164,240,39360,39360,39360,dc,null,null,null,null,null,null,"[3,2]"
NA,canvas-keyboard-response,61,259552,0.0-6.0-1.9,5017,NA,NA,NA,NA,clear_screen,null,null,NA,NA,critical,t,c,d,164,240,240,164,164,240,spektor,0,h,164,240,240,164,164,240,39360,39360,39360,dc,null,null,null,null,null,null,"[3,2]"
NA,canvas-keyboard-response,62,260890,0.0-6.0-2.9,5017,NA,NA,NA,NA,rectangles,null,null,NA,NA,critical,t,c,d,164,240,240,164,164,240,spektor,0,h,164,240,240,164,164,240,39360,39360,39360,dc,null,null,null,null,null,null,"[3,2]"
NA,canvas-keyboard-response,63,261057,0.0-6.0-3.9,5017,NA,NA,NA,NA,clear_screen,null,null,NA,NA,critical,t,c,d,164,240,240,164,164,240,spektor,0,h,164,240,240,164,164,240,39360,39360,39360,dc,null,null,null,null,null,null,"[3,2]"
NA,canvas-keyboard-response,64,262334,0.0-6.0-4.9,5017,NA,NA,NA,NA,make choice,1265,3,NA,NA,critical,t,c,d,164,240,240,164,164,240,spektor,0,h,164,240,240,164,164,240,39360,39360,39360,dc,null,null,null,null,null,null,"[3,2]"
NA,canvas-keyboard-response,65,262495,0.0-6.0-5.9,5017,NA,NA,NA,NA,clear_screen,null,null,NA,NA,critical,t,c,d,164,240,240,164,164,240,spektor,0,h,164,240,240,164,164,240,39360,39360,39360,dc,null,null,null,null,null,null,"[3,2]"
NA,canvas-keyboard-response,66,262703,0.0-6.0-0.10,5017,NA,NA,NA,NA,pre trial waiting period,null,null,NA,NA,critical,c,t,d,164,240,240,164,232.8713,160.6713,trueblood,0.05,w,240,164,164,240,232.8713,160.6713,39360,39360,37415.7294,tc,null,null,null,null,null,null,"[2,1]"
NA,canvas-keyboard-response,67,262859,0.0-6.0-1.10,5017,NA,NA,NA,NA,clear_screen,null,null,NA,NA,critical,c,t,d,164,240,240,164,232.8713,160.6713,trueblood,0.05,w,240,164,164,240,232.8713,160.6713,39360,39360,37415.7294,tc,null,null,null,null,null,null,"[2,1]"
NA,canvas-keyboard-response,68,264200,0.0-6.0-2.10,5017,NA,NA,NA,NA,rectangles,null,null,NA,NA,critical,c,t,d,164,240,240,164,232.8713,160.6713,trueblood,0.05,w,240,164,164,240,232.8713,160.6713,39360,39360,37415.7294,tc,null,null,null,null,null,null,"[2,1]"
NA,canvas-keyboard-response,69,264369,0.0-6.0-3.10,5017,NA,NA,NA,NA,clear_screen,null,null,NA,NA,critical,c,t,d,164,240,240,164,232.8713,160.6713,trueblood,0.05,w,240,164,164,240,232.8713,160.6713,39360,39360,37415.7294,tc,null,null,null,null,null,null,"[2,1]"
NA,canvas-keyboard-response,70,265847,0.0-6.0-4.10,5017,NA,NA,NA,NA,make choice,1459,2,NA,NA,critical,c,t,d,164,240,240,164,232.8713,160.6713,trueblood,0.05,w,240,164,164,240,232.8713,160.6713,39360,39360,37415.7294,tc,null,null,null,null,null,null,"[2,1]"
NA,canvas-keyboard-response,71,266012,0.0-6.0-5.10,5017,NA,NA,NA,NA,clear_screen,null,null,NA,NA,critical,c,t,d,164,240,240,164,232.8713,160.6713,trueblood,0.05,w,240,164,164,240,232.8713,160.6713,39360,39360,37415.7294,tc,null,null,null,null,null,null,"[2,1]"
NA,canvas-keyboard-response,72,266226,0.0-6.0-0.11,5017,NA,NA,NA,NA,pre trial waiting period,null,null,NA,NA,catch,l,sh,sw,225,225,174,174,209,234,trueblood,null,null,null,null,null,null,null,null,null,null,null,NA,180,200,260,200,36000,52000,"[1,2]"
NA,canvas-keyboard-response,73,266383,0.0-6.0-1.11,5017,NA,NA,NA,NA,clear_screen,null,null,NA,NA,catch,l,sh,sw,225,225,174,174,209,234,trueblood,null,null,null,null,null,null,null,null,null,null,null,NA,180,200,260,200,36000,52000,"[1,2]"
NA,canvas-keyboard-response,74,267724,0.0-6.0-2.11,5017,NA,NA,NA,NA,rectangles,null,null,NA,NA,catch,l,sh,sw,225,225,174,174,209,234,trueblood,null,null,null,null,null,null,null,null,null,null,null,NA,180,200,260,200,36000,52000,"[1,2]"
NA,canvas-keyboard-response,75,267890,0.0-6.0-3.11,5017,NA,NA,NA,NA,clear_screen,null,null,NA,NA,catch,l,sh,sw,225,225,174,174,209,234,trueblood,null,null,null,null,null,null,null,null,null,null,null,NA,180,200,260,200,36000,52000,"[1,2]"
NA,canvas-keyboard-response,76,269191,0.0-6.0-4.11,5017,NA,NA,NA,NA,make choice,1285,1,NA,NA,catch,l,sh,sw,225,225,174,174,209,234,trueblood,null,null,null,null,null,null,null,null,null,null,null,NA,180,200,260,200,36000,52000,"[1,2]"
NA,canvas-keyboard-response,77,269352,0.0-6.0-5.11,5017,NA,NA,NA,NA,clear_screen,null,null,NA,NA,catch,l,sh,sw,225,225,174,174,209,234,trueblood,null,null,null,null,null,null,null,null,null,null,null,NA,180,200,260,200,36000,52000,"[1,2]"
NA,canvas-keyboard-response,78,269562,0.0-6.0-0.12,5017,NA,NA,NA,NA,pre trial waiting period,null,null,NA,NA,critical,d,t,c,240,164,240,164,164,240,trueblood,0,w,240,164,164,240,240,164,39360,39360,39360,td,null,null,null,null,null,null,"[2,1]"
NA,canvas-keyboard-response,79,269724,0.0-6.0-1.12,5017,NA,NA,NA,NA,clear_screen,null,null,NA,NA,critical,d,t,c,240,164,240,164,164,240,trueblood,0,w,240,164,164,240,240,164,39360,39360,39360,td,null,null,null,null,null,null,"[2,1]"
NA,canvas-keyboard-response,80,271063,0.0-6.0-2.12,5017,NA,NA,NA,NA,rectangles,null,null,NA,NA,critical,d,t,c,240,164,240,164,164,240,trueblood,0,w,240,164,164,240,240,164,39360,39360,39360,td,null,null,null,null,null,null,"[2,1]"
NA,canvas-keyboard-response,81,271227,0.0-6.0-3.12,5017,NA,NA,NA,NA,clear_screen,null,null,NA,NA,critical,d,t,c,240,164,240,164,164,240,trueblood,0,w,240,164,164,240,240,164,39360,39360,39360,td,null,null,null,null,null,null,"[2,1]"
NA,canvas-keyboard-response,82,272158,0.0-6.0-4.12,5017,NA,NA,NA,NA,make choice,918,1,NA,NA,critical,d,t,c,240,164,240,164,164,240,trueblood,0,w,240,164,164,240,240,164,39360,39360,39360,td,null,null,null,null,null,null,"[2,1]"
NA,canvas-keyboard-response,83,272323,0.0-6.0-5.12,5017,NA,NA,NA,NA,clear_screen,null,null,NA,NA,critical,d,t,c,240,164,240,164,164,240,trueblood,0,w,240,164,164,240,240,164,39360,39360,39360,td,null,null,null,null,null,null,"[2,1]"
NA,canvas-keyboard-response,84,272531,0.0-6.0-0.13,5017,NA,NA,NA,NA,pre trial waiting period,null,null,NA,NA,critical,t,c,d,164,240,240,164,154.6796,220.0396,trueblood,0.14,h,164,240,240,164,154.6796,220.0396,39360,39360,34035.6388,td,null,null,null,null,null,null,"[1,3]"
NA,canvas-keyboard-response,85,272691,0.0-6.0-1.13,5017,NA,NA,NA,NA,clear_screen,null,null,NA,NA,critical,t,c,d,164,240,240,164,154.6796,220.0396,trueblood,0.14,h,164,240,240,164,154.6796,220.0396,39360,39360,34035.6388,td,null,null,null,null,null,null,"[1,3]"
NA,canvas-keyboard-response,86,274030,0.0-6.0-2.13,5017,NA,NA,NA,NA,rectangles,null,null,NA,NA,critical,t,c,d,164,240,240,164,154.6796,220.0396,trueblood,0.14,h,164,240,240,164,154.6796,220.0396,39360,39360,34035.6388,td,null,null,null,null,null,null,"[1,3]"
NA,canvas-keyboard-response,87,274188,0.0-6.0-3.13,5017,NA,NA,NA,NA,clear_screen,null,null,NA,NA,critical,t,c,d,164,240,240,164,154.6796,220.0396,trueblood,0.14,h,164,240,240,164,154.6796,220.0396,39360,39360,34035.6388,td,null,null,null,null,null,null,"[1,3]"
NA,canvas-keyboard-response,88,275702,0.0-6.0-4.13,5017,NA,NA,NA,NA,make choice,1498,3,NA,NA,critical,t,c,d,164,240,240,164,154.6796,220.0396,trueblood,0.14,h,164,240,240,164,154.6796,220.0396,39360,39360,34035.6388,td,null,null,null,null,null,null,"[1,3]"
NA,canvas-keyboard-response,89,275865,0.0-6.0-5.13,5017,NA,NA,NA,NA,clear_screen,null,null,NA,NA,critical,t,c,d,164,240,240,164,154.6796,220.0396,trueblood,0.14,h,164,240,240,164,154.6796,220.0396,39360,39360,34035.6388,td,null,null,null,null,null,null,"[1,3]"
NA,canvas-keyboard-response,90,276071,0.0-6.0-0.14,5017,NA,NA,NA,NA,pre trial waiting period,null,null,NA,NA,critical,t,d,c,240,164,240,164,164,240,spektor,0,w,240,164,164,240,240,164,39360,39360,39360,dc,null,null,null,null,null,null,"[2,3]"
NA,canvas-keyboard-response,91,276229,0.0-6.0-1.14,5017,NA,NA,NA,NA,clear_screen,null,null,NA,NA,critical,t,d,c,240,164,240,164,164,240,spektor,0,w,240,164,164,240,240,164,39360,39360,39360,dc,null,null,null,null,null,null,"[2,3]"
NA,canvas-keyboard-response,92,277569,0.0-6.0-2.14,5017,NA,NA,NA,NA,rectangles,null,null,NA,NA,critical,t,d,c,240,164,240,164,164,240,spektor,0,w,240,164,164,240,240,164,39360,39360,39360,dc,null,null,null,null,null,null,"[2,3]"
NA,canvas-keyboard-response,93,277732,0.0-6.0-3.14,5017,NA,NA,NA,NA,clear_screen,null,null,NA,NA,critical,t,d,c,240,164,240,164,164,240,spektor,0,w,240,164,164,240,240,164,39360,39360,39360,dc,null,null,null,null,null,null,"[2,3]"
NA,canvas-keyboard-response,94,279342,0.0-6.0-4.14,5017,NA,NA,NA,NA,make choice,1594,3,NA,NA,critical,t,d,c,240,164,240,164,164,240,spektor,0,w,240,164,164,240,240,164,39360,39360,39360,dc,null,null,null,null,null,null,"[2,3]"
NA,canvas-keyboard-response,95,279506,0.0-6.0-5.14,5017,NA,NA,NA,NA,clear_screen,null,null,NA,NA,critical,t,d,c,240,164,240,164,164,240,spektor,0,w,240,164,164,240,240,164,39360,39360,39360,dc,null,null,null,null,null,null,"[2,3]"
NA,canvas-keyboard-response,96,279715,0.0-6.0-0.15,5017,NA,NA,NA,NA,pre trial waiting period,null,null,NA,NA,catch,l,sh,sw,253,212,237,194,209,223,trueblood,null,null,null,null,null,null,null,null,null,null,null,NA,180,200,260,200,36000,52000,"[1,2]"
NA,canvas-keyboard-response,97,279874,0.0-6.0-1.15,5017,NA,NA,NA,NA,clear_screen,null,null,NA,NA,catch,l,sh,sw,253,212,237,194,209,223,trueblood,null,null,null,null,null,null,null,null,null,null,null,NA,180,200,260,200,36000,52000,"[1,2]"
NA,canvas-keyboard-response,98,281213,0.0-6.0-2.15,5017,NA,NA,NA,NA,rectangles,null,null,NA,NA,catch,l,sh,sw,253,212,237,194,209,223,trueblood,null,null,null,null,null,null,null,null,null,null,null,NA,180,200,260,200,36000,52000,"[1,2]"
NA,canvas-keyboard-response,99,281378,0.0-6.0-3.15,5017,NA,NA,NA,NA,clear_screen,null,null,NA,NA,catch,l,sh,sw,253,212,237,194,209,223,trueblood,null,null,null,null,null,null,null,null,null,null,null,NA,180,200,260,200,36000,52000,"[1,2]"
NA,canvas-keyboard-response,100,282629,0.0-6.0-4.15,5017,NA,NA,NA,NA,make choice,1235,1,NA,NA,catch,l,sh,sw,253,212,237,194,209,223,trueblood,null,null,null,null,null,null,null,null,null,null,null,NA,180,200,260,200,36000,52000,"[1,2]"
NA,canvas-keyboard-response,101,282795,0.0-6.0-5.15,5017,NA,NA,NA,NA,clear_screen,null,null,NA,NA,catch,l,sh,sw,253,212,237,194,209,223,trueblood,null,null,null,null,null,null,null,null,null,null,null,NA,180,200,260,200,36000,52000,"[1,2]"
NA,canvas-keyboard-response,102,283006,0.0-6.0-0.16,5017,NA,NA,NA,NA,pre trial waiting period,null,null,NA,NA,critical,d,t,c,160.6713,232.8713,164,240,240,164,trueblood,0.05,h,164,240,240,164,160.6713,232.8713,39360,39360,37415.7294,td,null,null,null,null,null,null,"[2,1]"
NA,canvas-keyboard-response,103,283166,0.0-6.0-1.16,5017,NA,NA,NA,NA,clear_screen,null,null,NA,NA,critical,d,t,c,160.6713,232.8713,164,240,240,164,trueblood,0.05,h,164,240,240,164,160.6713,232.8713,39360,39360,37415.7294,td,null,null,null,null,null,null,"[2,1]"
NA,canvas-keyboard-response,104,284509,0.0-6.0-2.16,5017,NA,NA,NA,NA,rectangles,null,null,NA,NA,critical,d,t,c,160.6713,232.8713,164,240,240,164,trueblood,0.05,h,164,240,240,164,160.6713,232.8713,39360,39360,37415.7294,td,null,null,null,null,null,null,"[2,1]"
NA,canvas-keyboard-response,105,284675,0.0-6.0-3.16,5017,NA,NA,NA,NA,clear_screen,null,null,NA,NA,critical,d,t,c,160.6713,232.8713,164,240,240,164,trueblood,0.05,h,164,240,240,164,160.6713,232.8713,39360,39360,37415.7294,td,null,null,null,null,null,null,"[2,1]"
NA,canvas-keyboard-response,106,285966,0.0-6.0-4.16,5017,NA,NA,NA,NA,make choice,1274,2,NA,NA,critical,d,t,c,160.6713,232.8713,164,240,240,164,trueblood,0.05,h,164,240,240,164,160.6713,232.8713,39360,39360,37415.7294,td,null,null,null,null,null,null,"[2,1]"
NA,canvas-keyboard-response,107,286130,0.0-6.0-5.16,5017,NA,NA,NA,NA,clear_screen,null,null,NA,NA,critical,d,t,c,160.6713,232.8713,164,240,240,164,trueblood,0.05,h,164,240,240,164,160.6713,232.8713,39360,39360,37415.7294,td,null,null,null,null,null,null,"[2,1]"
NA,canvas-keyboard-response,108,286342,0.0-6.0-0.17,5017,NA,NA,NA,NA,pre trial waiting period,null,null,NA,NA,catch,l,sw,sh,226,292,217,234,212,141,trueblood,null,null,null,null,null,null,null,null,null,null,null,NA,180,200,260,200,36000,52000,"[1,2]"
NA,canvas-keyboard-response,109,286504,0.0-6.0-1.17,5017,NA,NA,NA,NA,clear_screen,null,null,NA,NA,catch,l,sw,sh,226,292,217,234,212,141,trueblood,null,null,null,null,null,null,null,null,null,null,null,NA,180,200,260,200,36000,52000,"[1,2]"
NA,canvas-keyboard-response,110,287843,0.0-6.0-2.17,5017,NA,NA,NA,NA,rectangles,null,null,NA,NA,catch,l,sw,sh,226,292,217,234,212,141,trueblood,null,null,null,null,null,null,null,null,null,null,null,NA,180,200,260,200,36000,52000,"[1,2]"
NA,canvas-keyboard-response,111,288011,0.0-6.0-3.17,5017,NA,NA,NA,NA,clear_screen,null,null,NA,NA,catch,l,sw,sh,226,292,217,234,212,141,trueblood,null,null,null,null,null,null,null,null,null,null,null,NA,180,200,260,200,36000,52000,"[1,2]"
NA,canvas-keyboard-response,112,288774,0.0-6.0-4.17,5017,NA,NA,NA,NA,make choice,749,1,NA,NA,catch,l,sw,sh,226,292,217,234,212,141,trueblood,null,null,null,null,null,null,null,null,null,null,null,NA,180,200,260,200,36000,52000,"[1,2]"
NA,canvas-keyboard-response,113,288938,0.0-6.0-5.17,5017,NA,NA,NA,NA,clear_screen,null,null,NA,NA,catch,l,sw,sh,226,292,217,234,212,141,trueblood,null,null,null,null,null,null,null,null,null,null,null,NA,180,200,260,200,36000,52000,"[1,2]"
NA,canvas-keyboard-response,114,289153,0.0-6.0-0.18,5017,NA,NA,NA,NA,pre trial waiting period,null,null,NA,NA,catch,sw,sh,l,180,200,237,170,225,249,trueblood,null,null,null,null,null,null,null,null,null,null,null,NA,180,200,260,200,36000,52000,"[1,3]"
NA,canvas-keyboard-response,115,289312,0.0-6.0-1.18,5017,NA,NA,NA,NA,clear_screen,null,null,NA,NA,catch,sw,sh,l,180,200,237,170,225,249,trueblood,null,null,null,null,null,null,null,null,null,null,null,NA,180,200,260,200,36000,52000,"[1,3]"
NA,canvas-keyboard-response,116,290654,0.0-6.0-2.18,5017,NA,NA,NA,NA,rectangles,null,null,NA,NA,catch,sw,sh,l,180,200,237,170,225,249,trueblood,null,null,null,null,null,null,null,null,null,null,null,NA,180,200,260,200,36000,52000,"[1,3]"
NA,canvas-keyboard-response,117,290819,0.0-6.0-3.18,5017,NA,NA,NA,NA,clear_screen,null,null,NA,NA,catch,sw,sh,l,180,200,237,170,225,249,trueblood,null,null,null,null,null,null,null,null,null,null,null,NA,180,200,260,200,36000,52000,"[1,3]"
NA,canvas-keyboard-response,118,291830,0.0-6.0-4.18,5017,NA,NA,NA,NA,make choice,994,3,NA,NA,catch,sw,sh,l,180,200,237,170,225,249,trueblood,null,null,null,null,null,null,null,null,null,null,null,NA,180,200,260,200,36000,52000,"[1,3]"
NA,canvas-keyboard-response,119,291994,0.0-6.0-5.18,5017,NA,NA,NA,NA,clear_screen,null,null,NA,NA,catch,sw,sh,l,180,200,237,170,225,249,trueblood,null,null,null,null,null,null,null,null,null,null,null,NA,180,200,260,200,36000,52000,"[1,3]"
NA,canvas-keyboard-response,120,292209,0.0-6.0-0.19,5017,NA,NA,NA,NA,pre trial waiting period,null,null,NA,NA,critical,c,t,d,240,164,164,240,154.6796,220.0396,trueblood,0.14,h,164,240,240,164,154.6796,220.0396,39360,39360,34035.6388,tc,null,null,null,null,null,null,"[2,1]"
NA,canvas-keyboard-response,121,292368,0.0-6.0-1.19,5017,NA,NA,NA,NA,clear_screen,null,null,NA,NA,critical,c,t,d,240,164,164,240,154.6796,220.0396,trueblood,0.14,h,164,240,240,164,154.6796,220.0396,39360,39360,34035.6388,tc,null,null,null,null,null,null,"[2,1]"
NA,canvas-keyboard-response,122,293708,0.0-6.0-2.19,5017,NA,NA,NA,NA,rectangles,null,null,NA,NA,critical,c,t,d,240,164,164,240,154.6796,220.0396,trueblood,0.14,h,164,240,240,164,154.6796,220.0396,39360,39360,34035.6388,tc,null,null,null,null,null,null,"[2,1]"
NA,canvas-keyboard-response,123,293874,0.0-6.0-3.19,5017,NA,NA,NA,NA,clear_screen,null,null,NA,NA,critical,c,t,d,240,164,164,240,154.6796,220.0396,trueblood,0.14,h,164,240,240,164,154.6796,220.0396,39360,39360,34035.6388,tc,null,null,null,null,null,null,"[2,1]"
NA,canvas-keyboard-response,124,294941,0.0-6.0-4.19,5017,NA,NA,NA,NA,make choice,1055,1,NA,NA,critical,c,t,d,240,164,164,240,154.6796,220.0396,trueblood,0.14,h,164,240,240,164,154.6796,220.0396,39360,39360,34035.6388,tc,null,null,null,null,null,null,"[2,1]"
NA,canvas-keyboard-response,125,295107,0.0-6.0-5.19,5017,NA,NA,NA,NA,clear_screen,null,null,NA,NA,critical,c,t,d,240,164,164,240,154.6796,220.0396,trueblood,0.14,h,164,240,240,164,154.6796,220.0396,39360,39360,34035.6388,tc,null,null,null,null,null,null,"[2,1]"
NA,canvas-keyboard-response,126,295322,0.0-6.0-0.20,5017,NA,NA,NA,NA,pre trial waiting period,null,null,NA,NA,critical,c,t,d,164,240,240,164,220.0396,154.6796,trueblood,0.14,w,240,164,164,240,220.0396,154.6796,39360,39360,34035.6388,dc,null,null,null,null,null,null,"[3,1]"
NA,canvas-keyboard-response,127,295484,0.0-6.0-1.20,5017,NA,NA,NA,NA,clear_screen,null,null,NA,NA,critical,c,t,d,164,240,240,164,220.0396,154.6796,trueblood,0.14,w,240,164,164,240,220.0396,154.6796,39360,39360,34035.6388,dc,null,null,null,null,null,null,"[3,1]"
NA,canvas-keyboard-response,128,296824,0.0-6.0-2.20,5017,NA,NA,NA,NA,rectangles,null,null,NA,NA,critical,c,t,d,164,240,240,164,220.0396,154.6796,trueblood,0.14,w,240,164,164,240,220.0396,154.6796,39360,39360,34035.6388,dc,null,null,null,null,null,null,"[3,1]"
NA,canvas-keyboard-response,129,296990,0.0-6.0-3.20,5017,NA,NA,NA,NA,clear_screen,null,null,NA,NA,critical,c,t,d,164,240,240,164,220.0396,154.6796,trueblood,0.14,w,240,164,164,240,220.0396,154.6796,39360,39360,34035.6388,dc,null,null,null,null,null,null,"[3,1]"
NA,canvas-keyboard-response,130,298285,0.0-6.0-4.20,5017,NA,NA,NA,NA,make choice,1274,3,NA,NA,critical,c,t,d,164,240,240,164,220.0396,154.6796,trueblood,0.14,w,240,164,164,240,220.0396,154.6796,39360,39360,34035.6388,dc,null,null,null,null,null,null,"[3,1]"
NA,canvas-keyboard-response,131,298453,0.0-6.0-5.20,5017,NA,NA,NA,NA,clear_screen,null,null,NA,NA,critical,c,t,d,164,240,240,164,220.0396,154.6796,trueblood,0.14,w,240,164,164,240,220.0396,154.6796,39360,39360,34035.6388,dc,null,null,null,null,null,null,"[3,1]"
NA,canvas-keyboard-response,132,298672,0.0-6.0-0.21,5017,NA,NA,NA,NA,pre trial waiting period,null,null,NA,NA,critical,t,d,c,240,164,220.0396,154.6796,164,240,trueblood,0.14,w,240,164,164,240,220.0396,154.6796,39360,39360,34035.6388,td,null,null,null,null,null,null,"[1,2]"
NA,canvas-keyboard-response,133,298833,0.0-6.0-1.21,5017,NA,NA,NA,NA,clear_screen,null,null,NA,NA,critical,t,d,c,240,164,220.0396,154.6796,164,240,trueblood,0.14,w,240,164,164,240,220.0396,154.6796,39360,39360,34035.6388,td,null,null,null,null,null,null,"[1,2]"
NA,canvas-keyboard-response,134,300182,0.0-6.0-2.21,5017,NA,NA,NA,NA,rectangles,null,null,NA,NA,critical,t,d,c,240,164,220.0396,154.6796,164,240,trueblood,0.14,w,240,164,164,240,220.0396,154.6796,39360,39360,34035.6388,td,null,null,null,null,null,null,"[1,2]"
NA,canvas-keyboard-response,135,300353,0.0-6.0-3.21,5017,NA,NA,NA,NA,clear_screen,null,null,NA,NA,critical,t,d,c,240,164,220.0396,154.6796,164,240,trueblood,0.14,w,240,164,164,240,220.0396,154.6796,39360,39360,34035.6388,td,null,null,null,null,null,null,"[1,2]"
NA,canvas-keyboard-response,136,301478,0.0-6.0-4.21,5017,NA,NA,NA,NA,make choice,1111,1,NA,NA,critical,t,d,c,240,164,220.0396,154.6796,164,240,trueblood,0.14,w,240,164,164,240,220.0396,154.6796,39360,39360,34035.6388,td,null,null,null,null,null,null,"[1,2]"
NA,canvas-keyboard-response,137,301645,0.0-6.0-5.21,5017,NA,NA,NA,NA,clear_screen,null,null,NA,NA,critical,t,d,c,240,164,220.0396,154.6796,164,240,trueblood,0.14,w,240,164,164,240,220.0396,154.6796,39360,39360,34035.6388,td,null,null,null,null,null,null,"[1,2]"
NA,canvas-keyboard-response,138,301857,0.0-6.0-0.22,5017,NA,NA,NA,NA,pre trial waiting period,null,null,NA,NA,critical,t,d,c,164,240,162.6685,237.1485,240,164,trueblood,0.02,h,164,240,240,164,162.6685,237.1485,39360,39360,38576.5967,tc,null,null,null,null,null,null,"[1,3]"
NA,canvas-keyboard-response,139,302013,0.0-6.0-1.22,5017,NA,NA,NA,NA,clear_screen,null,null,NA,NA,critical,t,d,c,164,240,162.6685,237.1485,240,164,trueblood,0.02,h,164,240,240,164,162.6685,237.1485,39360,39360,38576.5967,tc,null,null,null,null,null,null,"[1,3]"
NA,canvas-keyboard-response,140,303356,0.0-6.0-2.22,5017,NA,NA,NA,NA,rectangles,null,null,NA,NA,critical,t,d,c,164,240,162.6685,237.1485,240,164,trueblood,0.02,h,164,240,240,164,162.6685,237.1485,39360,39360,38576.5967,tc,null,null,null,null,null,null,"[1,3]"
NA,canvas-keyboard-response,141,303521,0.0-6.0-3.22,5017,NA,NA,NA,NA,clear_screen,null,null,NA,NA,critical,t,d,c,164,240,162.6685,237.1485,240,164,trueblood,0.02,h,164,240,240,164,162.6685,237.1485,39360,39360,38576.5967,tc,null,null,null,null,null,null,"[1,3]"
NA,canvas-keyboard-response,142,304590,0.0-6.0-4.22,5017,NA,NA,NA,NA,make choice,1052,3,NA,NA,critical,t,d,c,164,240,162.6685,237.1485,240,164,trueblood,0.02,h,164,240,240,164,162.6685,237.1485,39360,39360,38576.5967,tc,null,null,null,null,null,null,"[1,3]"
NA,canvas-keyboard-response,143,304756,0.0-6.0-5.22,5017,NA,NA,NA,NA,clear_screen,null,null,NA,NA,critical,t,d,c,164,240,162.6685,237.1485,240,164,trueblood,0.02,h,164,240,240,164,162.6685,237.1485,39360,39360,38576.5967,tc,null,null,null,null,null,null,"[1,3]"
NA,canvas-keyboard-response,144,304966,0.0-6.0-0.23,5017,NA,NA,NA,NA,pre trial waiting period,null,null,NA,NA,critical,d,t,c,240,164,240,164,164,240,spektor,0,w,240,164,164,240,240,164,39360,39360,39360,tc,null,null,null,null,null,null,"[2,3]"
NA,canvas-keyboard-response,145,305127,0.0-6.0-1.23,5017,NA,NA,NA,NA,clear_screen,null,null,NA,NA,critical,d,t,c,240,164,240,164,164,240,spektor,0,w,240,164,164,240,240,164,39360,39360,39360,tc,null,null,null,null,null,null,"[2,3]"
NA,canvas-keyboard-response,146,306471,0.0-6.0-2.23,5017,NA,NA,NA,NA,rectangles,null,null,NA,NA,critical,d,t,c,240,164,240,164,164,240,spektor,0,w,240,164,164,240,240,164,39360,39360,39360,tc,null,null,null,null,null,null,"[2,3]"
NA,canvas-keyboard-response,147,306639,0.0-6.0-3.23,5017,NA,NA,NA,NA,clear_screen,null,null,NA,NA,critical,d,t,c,240,164,240,164,164,240,spektor,0,w,240,164,164,240,240,164,39360,39360,39360,tc,null,null,null,null,null,null,"[2,3]"
NA,canvas-keyboard-response,148,307222,0.0-6.0-4.23,5017,NA,NA,NA,NA,make choice,566,3,NA,NA,critical,d,t,c,240,164,240,164,164,240,spektor,0,w,240,164,164,240,240,164,39360,39360,39360,tc,null,null,null,null,null,null,"[2,3]"
NA,canvas-keyboard-response,149,307388,0.0-6.0-5.23,5017,NA,NA,NA,NA,clear_screen,null,null,NA,NA,critical,d,t,c,240,164,240,164,164,240,spektor,0,w,240,164,164,240,240,164,39360,39360,39360,tc,null,null,null,null,null,null,"[2,3]"
NA,canvas-keyboard-response,150,307599,0.0-6.0-0.24,5017,NA,NA,NA,NA,pre trial waiting period,null,null,NA,NA,critical,t,c,d,240,164,164,240,227.1683,158.0083,spektor,0.09,w,240,164,164,240,227.1683,158.0083,39360,39360,35894.4834,tc,null,null,null,null,null,null,"[1,2]"
NA,canvas-keyboard-response,151,307763,0.0-6.0-1.24,5017,NA,NA,NA,NA,clear_screen,null,null,NA,NA,critical,t,c,d,240,164,164,240,227.1683,158.0083,spektor,0.09,w,240,164,164,240,227.1683,158.0083,39360,39360,35894.4834,tc,null,null,null,null,null,null,"[1,2]"
NA,canvas-keyboard-response,152,309105,0.0-6.0-2.24,5017,NA,NA,NA,NA,rectangles,null,null,NA,NA,critical,t,c,d,240,164,164,240,227.1683,158.0083,spektor,0.09,w,240,164,164,240,227.1683,158.0083,39360,39360,35894.4834,tc,null,null,null,null,null,null,"[1,2]"
NA,canvas-keyboard-response,153,309275,0.0-6.0-3.24,5017,NA,NA,NA,NA,clear_screen,null,null,NA,NA,critical,t,c,d,240,164,164,240,227.1683,158.0083,spektor,0.09,w,240,164,164,240,227.1683,158.0083,39360,39360,35894.4834,tc,null,null,null,null,null,null,"[1,2]"
NA,canvas-keyboard-response,154,310053,0.0-6.0-4.24,5017,NA,NA,NA,NA,make choice,764,2,NA,NA,critical,t,c,d,240,164,164,240,227.1683,158.0083,spektor,0.09,w,240,164,164,240,227.1683,158.0083,39360,39360,35894.4834,tc,null,null,null,null,null,null,"[1,2]"
NA,canvas-keyboard-response,155,310218,0.0-6.0-5.24,5017,NA,NA,NA,NA,clear_screen,null,null,NA,NA,critical,t,c,d,240,164,164,240,227.1683,158.0083,spektor,0.09,w,240,164,164,240,227.1683,158.0083,39360,39360,35894.4834,tc,null,null,null,null,null,null,"[1,2]"
NA,canvas-keyboard-response,156,310433,0.0-6.0-0.25,5017,NA,NA,NA,NA,pre trial waiting period,null,null,NA,NA,catch,sw,sh,l,180,200,190,212,238,265,spektor,null,null,null,null,null,null,null,null,null,null,null,NA,180,200,260,200,36000,52000,"[2,3]"
NA,canvas-keyboard-response,157,310594,0.0-6.0-1.25,5017,NA,NA,NA,NA,clear_screen,null,null,NA,NA,catch,sw,sh,l,180,200,190,212,238,265,spektor,null,null,null,null,null,null,null,null,null,null,null,NA,180,200,260,200,36000,52000,"[2,3]"
NA,canvas-keyboard-response,158,311936,0.0-6.0-2.25,5017,NA,NA,NA,NA,rectangles,null,null,NA,NA,catch,sw,sh,l,180,200,190,212,238,265,spektor,null,null,null,null,null,null,null,null,null,null,null,NA,180,200,260,200,36000,52000,"[2,3]"
NA,canvas-keyboard-response,159,312103,0.0-6.0-3.25,5017,NA,NA,NA,NA,clear_screen,null,null,NA,NA,catch,sw,sh,l,180,200,190,212,238,265,spektor,null,null,null,null,null,null,null,null,null,null,null,NA,180,200,260,200,36000,52000,"[2,3]"
NA,canvas-keyboard-response,160,312814,0.0-6.0-4.25,5017,NA,NA,NA,NA,make choice,693,3,NA,NA,catch,sw,sh,l,180,200,190,212,238,265,spektor,null,null,null,null,null,null,null,null,null,null,null,NA,180,200,260,200,36000,52000,"[2,3]"
NA,canvas-keyboard-response,161,312982,0.0-6.0-5.25,5017,NA,NA,NA,NA,clear_screen,null,null,NA,NA,catch,sw,sh,l,180,200,190,212,238,265,spektor,null,null,null,null,null,null,null,null,null,null,null,NA,180,200,260,200,36000,52000,"[2,3]"
NA,canvas-keyboard-response,162,313192,0.0-6.0-0.26,5017,NA,NA,NA,NA,pre trial waiting period,null,null,NA,NA,critical,c,d,t,240,164,158.0083,227.1683,164,240,trueblood,0.09,h,164,240,240,164,158.0083,227.1683,39360,39360,35894.4834,dc,null,null,null,null,null,null,"[2,1]"
NA,canvas-keyboard-response,163,313352,0.0-6.0-1.26,5017,NA,NA,NA,NA,clear_screen,null,null,NA,NA,critical,c,d,t,240,164,158.0083,227.1683,164,240,trueblood,0.09,h,164,240,240,164,158.0083,227.1683,39360,39360,35894.4834,dc,null,null,null,null,null,null,"[2,1]"
NA,canvas-keyboard-response,164,314692,0.0-6.0-2.26,5017,NA,NA,NA,NA,rectangles,null,null,NA,NA,critical,c,d,t,240,164,158.0083,227.1683,164,240,trueblood,0.09,h,164,240,240,164,158.0083,227.1683,39360,39360,35894.4834,dc,null,null,null,null,null,null,"[2,1]"
NA,canvas-keyboard-response,165,314860,0.0-6.0-3.26,5017,NA,NA,NA,NA,clear_screen,null,null,NA,NA,critical,c,d,t,240,164,158.0083,227.1683,164,240,trueblood,0.09,h,164,240,240,164,158.0083,227.1683,39360,39360,35894.4834,dc,null,null,null,null,null,null,"[2,1]"
NA,canvas-keyboard-response,166,317110,0.0-6.0-4.26,5017,NA,NA,NA,NA,make choice,2233,1,NA,NA,critical,c,d,t,240,164,158.0083,227.1683,164,240,trueblood,0.09,h,164,240,240,164,158.0083,227.1683,39360,39360,35894.4834,dc,null,null,null,null,null,null,"[2,1]"
NA,canvas-keyboard-response,167,317277,0.0-6.0-5.26,5017,NA,NA,NA,NA,clear_screen,null,null,NA,NA,critical,c,d,t,240,164,158.0083,227.1683,164,240,trueblood,0.09,h,164,240,240,164,158.0083,227.1683,39360,39360,35894.4834,dc,null,null,null,null,null,null,"[2,1]"
NA,canvas-keyboard-response,168,317489,0.0-6.0-0.27,5017,NA,NA,NA,NA,pre trial waiting period,null,null,NA,NA,catch,sw,sh,l,180,200,165,211,276,216,trueblood,null,null,null,null,null,null,null,null,null,null,null,NA,180,200,260,200,36000,52000,"[1,3]"
NA,canvas-keyboard-response,169,317649,0.0-6.0-1.27,5017,NA,NA,NA,NA,clear_screen,null,null,NA,NA,catch,sw,sh,l,180,200,165,211,276,216,trueblood,null,null,null,null,null,null,null,null,null,null,null,NA,180,200,260,200,36000,52000,"[1,3]"
NA,canvas-keyboard-response,170,318992,0.0-6.0-2.27,5017,NA,NA,NA,NA,rectangles,null,null,NA,NA,catch,sw,sh,l,180,200,165,211,276,216,trueblood,null,null,null,null,null,null,null,null,null,null,null,NA,180,200,260,200,36000,52000,"[1,3]"
NA,canvas-keyboard-response,171,319160,0.0-6.0-3.27,5017,NA,NA,NA,NA,clear_screen,null,null,NA,NA,catch,sw,sh,l,180,200,165,211,276,216,trueblood,null,null,null,null,null,null,null,null,null,null,null,NA,180,200,260,200,36000,52000,"[1,3]"
NA,canvas-keyboard-response,172,319782,0.0-6.0-4.27,5017,NA,NA,NA,NA,make choice,606,3,NA,NA,catch,sw,sh,l,180,200,165,211,276,216,trueblood,null,null,null,null,null,null,null,null,null,null,null,NA,180,200,260,200,36000,52000,"[1,3]"
NA,canvas-keyboard-response,173,319948,0.0-6.0-5.27,5017,NA,NA,NA,NA,clear_screen,null,null,NA,NA,catch,sw,sh,l,180,200,165,211,276,216,trueblood,null,null,null,null,null,null,null,null,null,null,null,NA,180,200,260,200,36000,52000,"[1,3]"
NA,canvas-keyboard-response,174,320163,0.0-6.0-0.28,5017,NA,NA,NA,NA,pre trial waiting period,null,null,NA,NA,critical,d,c,t,164,240,240,164,164,240,trueblood,0,h,164,240,240,164,164,240,39360,39360,39360,tc,null,null,null,null,null,null,"[3,2]"
NA,canvas-keyboard-response,175,320324,0.0-6.0-1.28,5017,NA,NA,NA,NA,clear_screen,null,null,NA,NA,critical,d,c,t,164,240,240,164,164,240,trueblood,0,h,164,240,240,164,164,240,39360,39360,39360,tc,null,null,null,null,null,null,"[3,2]"
NA,canvas-keyboard-response,176,321664,0.0-6.0-2.28,5017,NA,NA,NA,NA,rectangles,null,null,NA,NA,critical,d,c,t,164,240,240,164,164,240,trueblood,0,h,164,240,240,164,164,240,39360,39360,39360,tc,null,null,null,null,null,null,"[3,2]"
NA,canvas-keyboard-response,177,321831,0.0-6.0-3.28,5017,NA,NA,NA,NA,clear_screen,null,null,NA,NA,critical,d,c,t,164,240,240,164,164,240,trueblood,0,h,164,240,240,164,164,240,39360,39360,39360,tc,null,null,null,null,null,null,"[3,2]"
NA,canvas-keyboard-response,178,322566,0.0-6.0-4.28,5017,NA,NA,NA,NA,make choice,716,2,NA,NA,critical,d,c,t,164,240,240,164,164,240,trueblood,0,h,164,240,240,164,164,240,39360,39360,39360,tc,null,null,null,null,null,null,"[3,2]"
NA,canvas-keyboard-response,179,322732,0.0-6.0-5.28,5017,NA,NA,NA,NA,clear_screen,null,null,NA,NA,critical,d,c,t,164,240,240,164,164,240,trueblood,0,h,164,240,240,164,164,240,39360,39360,39360,tc,null,null,null,null,null,null,"[3,2]"
NA,canvas-keyboard-response,180,322948,0.0-6.0-0.29,5017,NA,NA,NA,NA,pre trial waiting period,null,null,NA,NA,catch,sw,sh,l,180,200,195,190,211,275,spektor,null,null,null,null,null,null,null,null,null,null,null,NA,180,200,260,200,36000,52000,"[2,3]"
NA,canvas-keyboard-response,181,323106,0.0-6.0-1.29,5017,NA,NA,NA,NA,clear_screen,null,null,NA,NA,catch,sw,sh,l,180,200,195,190,211,275,spektor,null,null,null,null,null,null,null,null,null,null,null,NA,180,200,260,200,36000,52000,"[2,3]"
NA,canvas-keyboard-response,182,324449,0.0-6.0-2.29,5017,NA,NA,NA,NA,rectangles,null,null,NA,NA,catch,sw,sh,l,180,200,195,190,211,275,spektor,null,null,null,null,null,null,null,null,null,null,null,NA,180,200,260,200,36000,52000,"[2,3]"
NA,canvas-keyboard-response,183,324619,0.0-6.0-3.29,5017,NA,NA,NA,NA,clear_screen,null,null,NA,NA,catch,sw,sh,l,180,200,195,190,211,275,spektor,null,null,null,null,null,null,null,null,null,null,null,NA,180,200,260,200,36000,52000,"[2,3]"
NA,canvas-keyboard-response,184,325164,0.0-6.0-4.29,5017,NA,NA,NA,NA,make choice,530,3,NA,NA,catch,sw,sh,l,180,200,195,190,211,275,spektor,null,null,null,null,null,null,null,null,null,null,null,NA,180,200,260,200,36000,52000,"[2,3]"
NA,canvas-keyboard-response,185,325331,0.0-6.0-5.29,5017,NA,NA,NA,NA,clear_screen,null,null,NA,NA,catch,sw,sh,l,180,200,195,190,211,275,spektor,null,null,null,null,null,null,null,null,null,null,null,NA,180,200,260,200,36000,52000,"[2,3]"
NA,canvas-keyboard-response,186,325547,0.0-6.0-0.30,5017,NA,NA,NA,NA,pre trial waiting period,null,null,NA,NA,critical,t,c,d,164,240,240,164,160.6713,232.8713,spektor,0.05,h,164,240,240,164,160.6713,232.8713,39360,39360,37415.7294,tc,null,null,null,null,null,null,"[1,2]"
NA,canvas-keyboard-response,187,325709,0.0-6.0-1.30,5017,NA,NA,NA,NA,clear_screen,null,null,NA,NA,critical,t,c,d,164,240,240,164,160.6713,232.8713,spektor,0.05,h,164,240,240,164,160.6713,232.8713,39360,39360,37415.7294,tc,null,null,null,null,null,null,"[1,2]"
NA,canvas-keyboard-response,188,327054,0.0-6.0-2.30,5017,NA,NA,NA,NA,rectangles,null,null,NA,NA,critical,t,c,d,164,240,240,164,160.6713,232.8713,spektor,0.05,h,164,240,240,164,160.6713,232.8713,39360,39360,37415.7294,tc,null,null,null,null,null,null,"[1,2]"
NA,canvas-keyboard-response,189,327220,0.0-6.0-3.30,5017,NA,NA,NA,NA,clear_screen,null,null,NA,NA,critical,t,c,d,164,240,240,164,160.6713,232.8713,spektor,0.05,h,164,240,240,164,160.6713,232.8713,39360,39360,37415.7294,tc,null,null,null,null,null,null,"[1,2]"
NA,canvas-keyboard-response,190,327967,0.0-6.0-4.30,5017,NA,NA,NA,NA,make choice,728,1,NA,NA,critical,t,c,d,164,240,240,164,160.6713,232.8713,spektor,0.05,h,164,240,240,164,160.6713,232.8713,39360,39360,37415.7294,tc,null,null,null,null,null,null,"[1,2]"
NA,canvas-keyboard-response,191,328144,0.0-6.0-5.30,5017,NA,NA,NA,NA,clear_screen,null,null,NA,NA,critical,t,c,d,164,240,240,164,160.6713,232.8713,spektor,0.05,h,164,240,240,164,160.6713,232.8713,39360,39360,37415.7294,tc,null,null,null,null,null,null,"[1,2]"
NA,canvas-keyboard-response,192,328368,0.0-6.0-0.31,5017,NA,NA,NA,NA,pre trial waiting period,null,null,NA,NA,critical,c,d,t,240,164,158.0083,227.1683,164,240,spektor,0.09,h,164,240,240,164,158.0083,227.1683,39360,39360,35894.4834,dc,null,null,null,null,null,null,"[2,1]"
NA,canvas-keyboard-response,193,328525,0.0-6.0-1.31,5017,NA,NA,NA,NA,clear_screen,null,null,NA,NA,critical,c,d,t,240,164,158.0083,227.1683,164,240,spektor,0.09,h,164,240,240,164,158.0083,227.1683,39360,39360,35894.4834,dc,null,null,null,null,null,null,"[2,1]"
NA,canvas-keyboard-response,194,329870,0.0-6.0-2.31,5017,NA,NA,NA,NA,rectangles,null,null,NA,NA,critical,c,d,t,240,164,158.0083,227.1683,164,240,spektor,0.09,h,164,240,240,164,158.0083,227.1683,39360,39360,35894.4834,dc,null,null,null,null,null,null,"[2,1]"
NA,canvas-keyboard-response,195,330038,0.0-6.0-3.31,5017,NA,NA,NA,NA,clear_screen,null,null,NA,NA,critical,c,d,t,240,164,158.0083,227.1683,164,240,spektor,0.09,h,164,240,240,164,158.0083,227.1683,39360,39360,35894.4834,dc,null,null,null,null,null,null,"[2,1]"
NA,canvas-keyboard-response,196,331382,0.0-6.0-4.31,5017,NA,NA,NA,NA,make choice,1326,2,NA,NA,critical,c,d,t,240,164,158.0083,227.1683,164,240,spektor,0.09,h,164,240,240,164,158.0083,227.1683,39360,39360,35894.4834,dc,null,null,null,null,null,null,"[2,1]"
NA,canvas-keyboard-response,197,331549,0.0-6.0-5.31,5017,NA,NA,NA,NA,clear_screen,null,null,NA,NA,critical,c,d,t,240,164,158.0083,227.1683,164,240,spektor,0.09,h,164,240,240,164,158.0083,227.1683,39360,39360,35894.4834,dc,null,null,null,null,null,null,"[2,1]"
NA,canvas-keyboard-response,198,331764,0.0-6.0-0.32,5017,NA,NA,NA,NA,pre trial waiting period,null,null,NA,NA,catch,sh,sw,l,181,215,155,226,192,244,trueblood,null,null,null,null,null,null,null,null,null,null,null,NA,180,200,260,200,36000,52000,"[1,3]"
NA,canvas-keyboard-response,199,331924,0.0-6.0-1.32,5017,NA,NA,NA,NA,clear_screen,null,null,NA,NA,catch,sh,sw,l,181,215,155,226,192,244,trueblood,null,null,null,null,null,null,null,null,null,null,null,NA,180,200,260,200,36000,52000,"[1,3]"
NA,canvas-keyboard-response,200,333265,0.0-6.0-2.32,5017,NA,NA,NA,NA,rectangles,null,null,NA,NA,catch,sh,sw,l,181,215,155,226,192,244,trueblood,null,null,null,null,null,null,null,null,null,null,null,NA,180,200,260,200,36000,52000,"[1,3]"
NA,canvas-keyboard-response,201,333433,0.0-6.0-3.32,5017,NA,NA,NA,NA,clear_screen,null,null,NA,NA,catch,sh,sw,l,181,215,155,226,192,244,trueblood,null,null,null,null,null,null,null,null,null,null,null,NA,180,200,260,200,36000,52000,"[1,3]"
NA,canvas-keyboard-response,202,334190,0.0-6.0-4.32,5017,NA,NA,NA,NA,make choice,739,3,NA,NA,catch,sh,sw,l,181,215,155,226,192,244,trueblood,null,null,null,null,null,null,null,null,null,null,null,NA,180,200,260,200,36000,52000,"[1,3]"
NA,canvas-keyboard-response,203,334357,0.0-6.0-5.32,5017,NA,NA,NA,NA,clear_screen,null,null,NA,NA,catch,sh,sw,l,181,215,155,226,192,244,trueblood,null,null,null,null,null,null,null,null,null,null,null,NA,180,200,260,200,36000,52000,"[1,3]"
NA,canvas-keyboard-response,204,334569,0.0-6.0-0.33,5017,NA,NA,NA,NA,pre trial waiting period,null,null,NA,NA,critical,t,d,c,164,240,164,240,240,164,spektor,0,h,164,240,240,164,164,240,39360,39360,39360,tc,null,null,null,null,null,null,"[1,3]"
NA,canvas-keyboard-response,205,334727,0.0-6.0-1.33,5017,NA,NA,NA,NA,clear_screen,null,null,NA,NA,critical,t,d,c,164,240,164,240,240,164,spektor,0,h,164,240,240,164,164,240,39360,39360,39360,tc,null,null,null,null,null,null,"[1,3]"
NA,canvas-keyboard-response,206,336071,0.0-6.0-2.33,5017,NA,NA,NA,NA,rectangles,null,null,NA,NA,critical,t,d,c,164,240,164,240,240,164,spektor,0,h,164,240,240,164,164,240,39360,39360,39360,tc,null,null,null,null,null,null,"[1,3]"
NA,canvas-keyboard-response,207,336240,0.0-6.0-3.33,5017,NA,NA,NA,NA,clear_screen,null,null,NA,NA,critical,t,d,c,164,240,164,240,240,164,spektor,0,h,164,240,240,164,164,240,39360,39360,39360,tc,null,null,null,null,null,null,"[1,3]"
NA,canvas-keyboard-response,208,339398,0.0-6.0-4.33,5017,NA,NA,NA,NA,make choice,3140,1,NA,NA,critical,t,d,c,164,240,164,240,240,164,spektor,0,h,164,240,240,164,164,240,39360,39360,39360,tc,null,null,null,null,null,null,"[1,3]"
NA,canvas-keyboard-response,209,339565,0.0-6.0-5.33,5017,NA,NA,NA,NA,clear_screen,null,null,NA,NA,critical,t,d,c,164,240,164,240,240,164,spektor,0,h,164,240,240,164,164,240,39360,39360,39360,tc,null,null,null,null,null,null,"[1,3]"
NA,canvas-keyboard-response,210,339781,0.0-6.0-0.34,5017,NA,NA,NA,NA,pre trial waiting period,null,null,NA,NA,critical,t,c,d,164,240,240,164,158.0083,227.1683,trueblood,0.09,h,164,240,240,164,158.0083,227.1683,39360,39360,35894.4834,tc,null,null,null,null,null,null,"[1,2]"
NA,canvas-keyboard-response,211,339937,0.0-6.0-1.34,5017,NA,NA,NA,NA,clear_screen,null,null,NA,NA,critical,t,c,d,164,240,240,164,158.0083,227.1683,trueblood,0.09,h,164,240,240,164,158.0083,227.1683,39360,39360,35894.4834,tc,null,null,null,null,null,null,"[1,2]"
NA,canvas-keyboard-response,212,341285,0.0-6.0-2.34,5017,NA,NA,NA,NA,rectangles,null,null,NA,NA,critical,t,c,d,164,240,240,164,158.0083,227.1683,trueblood,0.09,h,164,240,240,164,158.0083,227.1683,39360,39360,35894.4834,tc,null,null,null,null,null,null,"[1,2]"
NA,canvas-keyboard-response,213,341453,0.0-6.0-3.34,5017,NA,NA,NA,NA,clear_screen,null,null,NA,NA,critical,t,c,d,164,240,240,164,158.0083,227.1683,trueblood,0.09,h,164,240,240,164,158.0083,227.1683,39360,39360,35894.4834,tc,null,null,null,null,null,null,"[1,2]"
NA,canvas-keyboard-response,214,342494,0.0-6.0-4.34,5017,NA,NA,NA,NA,make choice,1022,2,NA,NA,critical,t,c,d,164,240,240,164,158.0083,227.1683,trueblood,0.09,h,164,240,240,164,158.0083,227.1683,39360,39360,35894.4834,tc,null,null,null,null,null,null,"[1,2]"
NA,canvas-keyboard-response,215,342661,0.0-6.0-5.34,5017,NA,NA,NA,NA,clear_screen,null,null,NA,NA,critical,t,c,d,164,240,240,164,158.0083,227.1683,trueblood,0.09,h,164,240,240,164,158.0083,227.1683,39360,39360,35894.4834,tc,null,null,null,null,null,null,"[1,2]"
NA,canvas-keyboard-response,216,342868,0.0-6.0-0.35,5017,NA,NA,NA,NA,pre trial waiting period,null,null,NA,NA,critical,c,d,t,164,240,240,164,240,164,trueblood,0,w,240,164,164,240,240,164,39360,39360,39360,tc,null,null,null,null,null,null,"[3,1]"
NA,canvas-keyboard-response,217,343022,0.0-6.0-1.35,5017,NA,NA,NA,NA,clear_screen,null,null,NA,NA,critical,c,d,t,164,240,240,164,240,164,trueblood,0,w,240,164,164,240,240,164,39360,39360,39360,tc,null,null,null,null,null,null,"[3,1]"
NA,canvas-keyboard-response,218,344369,0.0-6.0-2.35,5017,NA,NA,NA,NA,rectangles,null,null,NA,NA,critical,c,d,t,164,240,240,164,240,164,trueblood,0,w,240,164,164,240,240,164,39360,39360,39360,tc,null,null,null,null,null,null,"[3,1]"
NA,canvas-keyboard-response,219,344534,0.0-6.0-3.35,5017,NA,NA,NA,NA,clear_screen,null,null,NA,NA,critical,c,d,t,164,240,240,164,240,164,trueblood,0,w,240,164,164,240,240,164,39360,39360,39360,tc,null,null,null,null,null,null,"[3,1]"
NA,canvas-keyboard-response,220,347158,0.0-6.0-4.35,5017,NA,NA,NA,NA,make choice,2605,3,NA,NA,critical,c,d,t,164,240,240,164,240,164,trueblood,0,w,240,164,164,240,240,164,39360,39360,39360,tc,null,null,null,null,null,null,"[3,1]"
NA,canvas-keyboard-response,221,347322,0.0-6.0-5.35,5017,NA,NA,NA,NA,clear_screen,null,null,NA,NA,critical,c,d,t,164,240,240,164,240,164,trueblood,0,w,240,164,164,240,240,164,39360,39360,39360,tc,null,null,null,null,null,null,"[3,1]"
NA,canvas-keyboard-response,222,347540,0.0-6.0-0.36,5017,NA,NA,NA,NA,pre trial waiting period,null,null,NA,NA,catch,sw,sh,l,180,200,227,205,280,239,spektor,null,null,null,null,null,null,null,null,null,null,null,NA,180,200,260,200,36000,52000,"[2,3]"
NA,canvas-keyboard-response,223,347700,0.0-6.0-1.36,5017,NA,NA,NA,NA,clear_screen,null,null,NA,NA,catch,sw,sh,l,180,200,227,205,280,239,spektor,null,null,null,null,null,null,null,null,null,null,null,NA,180,200,260,200,36000,52000,"[2,3]"
NA,canvas-keyboard-response,224,349048,0.0-6.0-2.36,5017,NA,NA,NA,NA,rectangles,null,null,NA,NA,catch,sw,sh,l,180,200,227,205,280,239,spektor,null,null,null,null,null,null,null,null,null,null,null,NA,180,200,260,200,36000,52000,"[2,3]"
NA,canvas-keyboard-response,225,349216,0.0-6.0-3.36,5017,NA,NA,NA,NA,clear_screen,null,null,NA,NA,catch,sw,sh,l,180,200,227,205,280,239,spektor,null,null,null,null,null,null,null,null,null,null,null,NA,180,200,260,200,36000,52000,"[2,3]"
NA,canvas-keyboard-response,226,350461,0.0-6.0-4.36,5017,NA,NA,NA,NA,make choice,1228,3,NA,NA,catch,sw,sh,l,180,200,227,205,280,239,spektor,null,null,null,null,null,null,null,null,null,null,null,NA,180,200,260,200,36000,52000,"[2,3]"
NA,canvas-keyboard-response,227,350627,0.0-6.0-5.36,5017,NA,NA,NA,NA,clear_screen,null,null,NA,NA,catch,sw,sh,l,180,200,227,205,280,239,spektor,null,null,null,null,null,null,null,null,null,null,null,NA,180,200,260,200,36000,52000,"[2,3]"
NA,canvas-keyboard-response,228,350841,0.0-6.0-0.37,5017,NA,NA,NA,NA,pre trial waiting period,null,null,NA,NA,catch,l,sw,sh,211,281,169,239,189,162,spektor,null,null,null,null,null,null,null,null,null,null,null,NA,180,200,260,200,36000,52000,"[1,2]"
NA,canvas-keyboard-response,229,351000,0.0-6.0-1.37,5017,NA,NA,NA,NA,clear_screen,null,null,NA,NA,catch,l,sw,sh,211,281,169,239,189,162,spektor,null,null,null,null,null,null,null,null,null,null,null,NA,180,200,260,200,36000,52000,"[1,2]"
NA,canvas-keyboard-response,230,352345,0.0-6.0-2.37,5017,NA,NA,NA,NA,rectangles,null,null,NA,NA,catch,l,sw,sh,211,281,169,239,189,162,spektor,null,null,null,null,null,null,null,null,null,null,null,NA,180,200,260,200,36000,52000,"[1,2]"
NA,canvas-keyboard-response,231,352517,0.0-6.0-3.37,5017,NA,NA,NA,NA,clear_screen,null,null,NA,NA,catch,l,sw,sh,211,281,169,239,189,162,spektor,null,null,null,null,null,null,null,null,null,null,null,NA,180,200,260,200,36000,52000,"[1,2]"
NA,canvas-keyboard-response,232,353166,0.0-6.0-4.37,5017,NA,NA,NA,NA,make choice,631,1,NA,NA,catch,l,sw,sh,211,281,169,239,189,162,spektor,null,null,null,null,null,null,null,null,null,null,null,NA,180,200,260,200,36000,52000,"[1,2]"
NA,canvas-keyboard-response,233,353334,0.0-6.0-5.37,5017,NA,NA,NA,NA,clear_screen,null,null,NA,NA,catch,l,sw,sh,211,281,169,239,189,162,spektor,null,null,null,null,null,null,null,null,null,null,null,NA,180,200,260,200,36000,52000,"[1,2]"
NA,canvas-keyboard-response,234,353549,0.0-6.0-0.38,5017,NA,NA,NA,NA,pre trial waiting period,null,null,NA,NA,catch,l,sh,sw,191,264,227,146,161,189,spektor,null,null,null,null,null,null,null,null,null,null,null,NA,180,200,260,200,36000,52000,"[1,3]"
NA,canvas-keyboard-response,235,353709,0.0-6.0-1.38,5017,NA,NA,NA,NA,clear_screen,null,null,NA,NA,catch,l,sh,sw,191,264,227,146,161,189,spektor,null,null,null,null,null,null,null,null,null,null,null,NA,180,200,260,200,36000,52000,"[1,3]"
NA,canvas-keyboard-response,236,355051,0.0-6.0-2.38,5017,NA,NA,NA,NA,rectangles,null,null,NA,NA,catch,l,sh,sw,191,264,227,146,161,189,spektor,null,null,null,null,null,null,null,null,null,null,null,NA,180,200,260,200,36000,52000,"[1,3]"
NA,canvas-keyboard-response,237,355221,0.0-6.0-3.38,5017,NA,NA,NA,NA,clear_screen,null,null,NA,NA,catch,l,sh,sw,191,264,227,146,161,189,spektor,null,null,null,null,null,null,null,null,null,null,null,NA,180,200,260,200,36000,52000,"[1,3]"
NA,canvas-keyboard-response,238,356126,0.0-6.0-4.38,5017,NA,NA,NA,NA,make choice,885,1,NA,NA,catch,l,sh,sw,191,264,227,146,161,189,spektor,null,null,null,null,null,null,null,null,null,null,null,NA,180,200,260,200,36000,52000,"[1,3]"
NA,canvas-keyboard-response,239,356293,0.0-6.0-5.38,5017,NA,NA,NA,NA,clear_screen,null,null,NA,NA,catch,l,sh,sw,191,264,227,146,161,189,spektor,null,null,null,null,null,null,null,null,null,null,null,NA,180,200,260,200,36000,52000,"[1,3]"
NA,canvas-keyboard-response,240,356506,0.0-6.0-0.39,5017,NA,NA,NA,NA,pre trial waiting period,null,null,NA,NA,catch,sh,sw,l,214,210,169,179,173,257,spektor,null,null,null,null,null,null,null,null,null,null,null,NA,180,200,260,200,36000,52000,"[1,3]"
NA,canvas-keyboard-response,241,356661,0.0-6.0-1.39,5017,NA,NA,NA,NA,clear_screen,null,null,NA,NA,catch,sh,sw,l,214,210,169,179,173,257,spektor,null,null,null,null,null,null,null,null,null,null,null,NA,180,200,260,200,36000,52000,"[1,3]"
NA,canvas-keyboard-response,242,358008,0.0-6.0-2.39,5017,NA,NA,NA,NA,rectangles,null,null,NA,NA,catch,sh,sw,l,214,210,169,179,173,257,spektor,null,null,null,null,null,null,null,null,null,null,null,NA,180,200,260,200,36000,52000,"[1,3]"
NA,canvas-keyboard-response,243,358181,0.0-6.0-3.39,5017,NA,NA,NA,NA,clear_screen,null,null,NA,NA,catch,sh,sw,l,214,210,169,179,173,257,spektor,null,null,null,null,null,null,null,null,null,null,null,NA,180,200,260,200,36000,52000,"[1,3]"
NA,canvas-keyboard-response,244,360062,0.0-6.0-4.39,5017,NA,NA,NA,NA,make choice,1861,3,NA,NA,catch,sh,sw,l,214,210,169,179,173,257,spektor,null,null,null,null,null,null,null,null,null,null,null,NA,180,200,260,200,36000,52000,"[1,3]"
NA,canvas-keyboard-response,245,360229,0.0-6.0-5.39,5017,NA,NA,NA,NA,clear_screen,null,null,NA,NA,catch,sh,sw,l,214,210,169,179,173,257,spektor,null,null,null,null,null,null,null,null,null,null,null,NA,180,200,260,200,36000,52000,"[1,3]"
NA,canvas-keyboard-response,246,360443,0.0-6.0-0.40,5017,NA,NA,NA,NA,pre trial waiting period,null,null,NA,NA,critical,c,d,t,164,240,220.0396,154.6796,240,164,spektor,0.14,w,240,164,164,240,220.0396,154.6796,39360,39360,34035.6388,tc,null,null,null,null,null,null,"[3,1]"
NA,canvas-keyboard-response,247,360603,0.0-6.0-1.40,5017,NA,NA,NA,NA,clear_screen,null,null,NA,NA,critical,c,d,t,164,240,220.0396,154.6796,240,164,spektor,0.14,w,240,164,164,240,220.0396,154.6796,39360,39360,34035.6388,tc,null,null,null,null,null,null,"[3,1]"
NA,canvas-keyboard-response,248,361947,0.0-6.0-2.40,5017,NA,NA,NA,NA,rectangles,null,null,NA,NA,critical,c,d,t,164,240,220.0396,154.6796,240,164,spektor,0.14,w,240,164,164,240,220.0396,154.6796,39360,39360,34035.6388,tc,null,null,null,null,null,null,"[3,1]"
NA,canvas-keyboard-response,249,362114,0.0-6.0-3.40,5017,NA,NA,NA,NA,clear_screen,null,null,NA,NA,critical,c,d,t,164,240,220.0396,154.6796,240,164,spektor,0.14,w,240,164,164,240,220.0396,154.6796,39360,39360,34035.6388,tc,null,null,null,null,null,null,"[3,1]"
NA,canvas-keyboard-response,250,363399,0.0-6.0-4.40,5017,NA,NA,NA,NA,make choice,1263,3,NA,NA,critical,c,d,t,164,240,220.0396,154.6796,240,164,spektor,0.14,w,240,164,164,240,220.0396,154.6796,39360,39360,34035.6388,tc,null,null,null,null,null,null,"[3,1]"
NA,canvas-keyboard-response,251,363563,0.0-6.0-5.40,5017,NA,NA,NA,NA,clear_screen,null,null,NA,NA,critical,c,d,t,164,240,220.0396,154.6796,240,164,spektor,0.14,w,240,164,164,240,220.0396,154.6796,39360,39360,34035.6388,tc,null,null,null,null,null,null,"[3,1]"
NA,canvas-keyboard-response,252,363778,0.0-6.0-0.41,5017,NA,NA,NA,NA,pre trial waiting period,null,null,NA,NA,critical,d,t,c,237.1485,162.6685,240,164,164,240,spektor,0.02,w,240,164,164,240,237.1485,162.6685,39360,39360,38576.5967,td,null,null,null,null,null,null,"[2,1]"
NA,canvas-keyboard-response,253,363936,0.0-6.0-1.41,5017,NA,NA,NA,NA,clear_screen,null,null,NA,NA,critical,d,t,c,237.1485,162.6685,240,164,164,240,spektor,0.02,w,240,164,164,240,237.1485,162.6685,39360,39360,38576.5967,td,null,null,null,null,null,null,"[2,1]"
NA,canvas-keyboard-response,254,365282,0.0-6.0-2.41,5017,NA,NA,NA,NA,rectangles,null,null,NA,NA,critical,d,t,c,237.1485,162.6685,240,164,164,240,spektor,0.02,w,240,164,164,240,237.1485,162.6685,39360,39360,38576.5967,td,null,null,null,null,null,null,"[2,1]"
NA,canvas-keyboard-response,255,365460,0.0-6.0-3.41,5017,NA,NA,NA,NA,clear_screen,null,null,NA,NA,critical,d,t,c,237.1485,162.6685,240,164,164,240,spektor,0.02,w,240,164,164,240,237.1485,162.6685,39360,39360,38576.5967,td,null,null,null,null,null,null,"[2,1]"
NA,canvas-keyboard-response,256,366654,0.0-6.0-4.41,5017,NA,NA,NA,NA,make choice,1166,2,NA,NA,critical,d,t,c,237.1485,162.6685,240,164,164,240,spektor,0.02,w,240,164,164,240,237.1485,162.6685,39360,39360,38576.5967,td,null,null,null,null,null,null,"[2,1]"
NA,canvas-keyboard-response,257,366820,0.0-6.0-5.41,5017,NA,NA,NA,NA,clear_screen,null,null,NA,NA,critical,d,t,c,237.1485,162.6685,240,164,164,240,spektor,0.02,w,240,164,164,240,237.1485,162.6685,39360,39360,38576.5967,td,null,null,null,null,null,null,"[2,1]"
NA,canvas-keyboard-response,258,367037,0.0-6.0-0.42,5017,NA,NA,NA,NA,pre trial waiting period,null,null,NA,NA,critical,t,c,d,164,240,240,164,154.6796,220.0396,spektor,0.14,h,164,240,240,164,154.6796,220.0396,39360,39360,34035.6388,td,null,null,null,null,null,null,"[1,3]"
NA,canvas-keyboard-response,259,367192,0.0-6.0-1.42,5017,NA,NA,NA,NA,clear_screen,null,null,NA,NA,critical,t,c,d,164,240,240,164,154.6796,220.0396,spektor,0.14,h,164,240,240,164,154.6796,220.0396,39360,39360,34035.6388,td,null,null,null,null,null,null,"[1,3]"
NA,canvas-keyboard-response,260,368538,0.0-6.0-2.42,5017,NA,NA,NA,NA,rectangles,null,null,NA,NA,critical,t,c,d,164,240,240,164,154.6796,220.0396,spektor,0.14,h,164,240,240,164,154.6796,220.0396,39360,39360,34035.6388,td,null,null,null,null,null,null,"[1,3]"
NA,canvas-keyboard-response,261,368710,0.0-6.0-3.42,5017,NA,NA,NA,NA,clear_screen,null,null,NA,NA,critical,t,c,d,164,240,240,164,154.6796,220.0396,spektor,0.14,h,164,240,240,164,154.6796,220.0396,39360,39360,34035.6388,td,null,null,null,null,null,null,"[1,3]"
NA,canvas-keyboard-response,262,369574,0.0-6.0-4.42,5017,NA,NA,NA,NA,make choice,846,1,NA,NA,critical,t,c,d,164,240,240,164,154.6796,220.0396,spektor,0.14,h,164,240,240,164,154.6796,220.0396,39360,39360,34035.6388,td,null,null,null,null,null,null,"[1,3]"
NA,canvas-keyboard-response,263,369743,0.0-6.0-5.42,5017,NA,NA,NA,NA,clear_screen,null,null,NA,NA,critical,t,c,d,164,240,240,164,154.6796,220.0396,spektor,0.14,h,164,240,240,164,154.6796,220.0396,39360,39360,34035.6388,td,null,null,null,null,null,null,"[1,3]"
NA,canvas-keyboard-response,264,369961,0.0-6.0-0.43,5017,NA,NA,NA,NA,pre trial waiting period,null,null,NA,NA,critical,t,d,c,240,164,237.1485,162.6685,164,240,trueblood,0.02,w,240,164,164,240,237.1485,162.6685,39360,39360,38576.5967,dc,null,null,null,null,null,null,"[2,3]"
NA,canvas-keyboard-response,265,370118,0.0-6.0-1.43,5017,NA,NA,NA,NA,clear_screen,null,null,NA,NA,critical,t,d,c,240,164,237.1485,162.6685,164,240,trueblood,0.02,w,240,164,164,240,237.1485,162.6685,39360,39360,38576.5967,dc,null,null,null,null,null,null,"[2,3]"
NA,canvas-keyboard-response,266,371463,0.0-6.0-2.43,5017,NA,NA,NA,NA,rectangles,null,null,NA,NA,critical,t,d,c,240,164,237.1485,162.6685,164,240,trueblood,0.02,w,240,164,164,240,237.1485,162.6685,39360,39360,38576.5967,dc,null,null,null,null,null,null,"[2,3]"
NA,canvas-keyboard-response,267,371632,0.0-6.0-3.43,5017,NA,NA,NA,NA,clear_screen,null,null,NA,NA,critical,t,d,c,240,164,237.1485,162.6685,164,240,trueblood,0.02,w,240,164,164,240,237.1485,162.6685,39360,39360,38576.5967,dc,null,null,null,null,null,null,"[2,3]"
NA,canvas-keyboard-response,268,372270,0.0-6.0-4.43,5017,NA,NA,NA,NA,make choice,615,2,NA,NA,critical,t,d,c,240,164,237.1485,162.6685,164,240,trueblood,0.02,w,240,164,164,240,237.1485,162.6685,39360,39360,38576.5967,dc,null,null,null,null,null,null,"[2,3]"
NA,canvas-keyboard-response,269,372440,0.0-6.0-5.43,5017,NA,NA,NA,NA,clear_screen,null,null,NA,NA,critical,t,d,c,240,164,237.1485,162.6685,164,240,trueblood,0.02,w,240,164,164,240,237.1485,162.6685,39360,39360,38576.5967,dc,null,null,null,null,null,null,"[2,3]"
NA,canvas-keyboard-response,270,372655,0.0-6.0-0.44,5017,NA,NA,NA,NA,pre trial waiting period,null,null,NA,NA,critical,c,t,d,240,164,164,240,162.6685,237.1485,spektor,0.02,h,164,240,240,164,162.6685,237.1485,39360,39360,38576.5967,dc,null,null,null,null,null,null,"[3,1]"
NA,canvas-keyboard-response,271,372815,0.0-6.0-1.44,5017,NA,NA,NA,NA,clear_screen,null,null,NA,NA,critical,c,t,d,240,164,164,240,162.6685,237.1485,spektor,0.02,h,164,240,240,164,162.6685,237.1485,39360,39360,38576.5967,dc,null,null,null,null,null,null,"[3,1]"
NA,canvas-keyboard-response,272,374161,0.0-6.0-2.44,5017,NA,NA,NA,NA,rectangles,null,null,NA,NA,critical,c,t,d,240,164,164,240,162.6685,237.1485,spektor,0.02,h,164,240,240,164,162.6685,237.1485,39360,39360,38576.5967,dc,null,null,null,null,null,null,"[3,1]"
NA,canvas-keyboard-response,273,374331,0.0-6.0-3.44,5017,NA,NA,NA,NA,clear_screen,null,null,NA,NA,critical,c,t,d,240,164,164,240,162.6685,237.1485,spektor,0.02,h,164,240,240,164,162.6685,237.1485,39360,39360,38576.5967,dc,null,null,null,null,null,null,"[3,1]"
NA,canvas-keyboard-response,274,377486,0.0-6.0-4.44,5017,NA,NA,NA,NA,make choice,3137,1,NA,NA,critical,c,t,d,240,164,164,240,162.6685,237.1485,spektor,0.02,h,164,240,240,164,162.6685,237.1485,39360,39360,38576.5967,dc,null,null,null,null,null,null,"[3,1]"
NA,canvas-keyboard-response,275,377655,0.0-6.0-5.44,5017,NA,NA,NA,NA,clear_screen,null,null,NA,NA,critical,c,t,d,240,164,164,240,162.6685,237.1485,spektor,0.02,h,164,240,240,164,162.6685,237.1485,39360,39360,38576.5967,dc,null,null,null,null,null,null,"[3,1]"
NA,canvas-keyboard-response,276,377870,0.0-6.0-0.45,5017,NA,NA,NA,NA,pre trial waiting period,null,null,NA,NA,catch,l,sw,sh,185,266,175,207,232,186,spektor,null,null,null,null,null,null,null,null,null,null,null,NA,180,200,260,200,36000,52000,"[1,3]"
NA,canvas-keyboard-response,277,378029,0.0-6.0-1.45,5017,NA,NA,NA,NA,clear_screen,null,null,NA,NA,catch,l,sw,sh,185,266,175,207,232,186,spektor,null,null,null,null,null,null,null,null,null,null,null,NA,180,200,260,200,36000,52000,"[1,3]"
NA,canvas-keyboard-response,278,379378,0.0-6.0-2.45,5017,NA,NA,NA,NA,rectangles,null,null,NA,NA,catch,l,sw,sh,185,266,175,207,232,186,spektor,null,null,null,null,null,null,null,null,null,null,null,NA,180,200,260,200,36000,52000,"[1,3]"
NA,canvas-keyboard-response,279,379551,0.0-6.0-3.45,5017,NA,NA,NA,NA,clear_screen,null,null,NA,NA,catch,l,sw,sh,185,266,175,207,232,186,spektor,null,null,null,null,null,null,null,null,null,null,null,NA,180,200,260,200,36000,52000,"[1,3]"
NA,canvas-keyboard-response,280,381782,0.0-6.0-4.45,5017,NA,NA,NA,NA,make choice,2210,1,NA,NA,catch,l,sw,sh,185,266,175,207,232,186,spektor,null,null,null,null,null,null,null,null,null,null,null,NA,180,200,260,200,36000,52000,"[1,3]"
NA,canvas-keyboard-response,281,381951,0.0-6.0-5.45,5017,NA,NA,NA,NA,clear_screen,null,null,NA,NA,catch,l,sw,sh,185,266,175,207,232,186,spektor,null,null,null,null,null,null,null,null,null,null,null,NA,180,200,260,200,36000,52000,"[1,3]"
NA,canvas-keyboard-response,282,382170,0.0-6.0-0.46,5017,NA,NA,NA,NA,pre trial waiting period,null,null,NA,NA,critical,t,c,d,240,164,164,240,227.1683,158.0083,trueblood,0.09,w,240,164,164,240,227.1683,158.0083,39360,39360,35894.4834,tc,null,null,null,null,null,null,"[1,2]"
NA,canvas-keyboard-response,283,382329,0.0-6.0-1.46,5017,NA,NA,NA,NA,clear_screen,null,null,NA,NA,critical,t,c,d,240,164,164,240,227.1683,158.0083,trueblood,0.09,w,240,164,164,240,227.1683,158.0083,39360,39360,35894.4834,tc,null,null,null,null,null,null,"[1,2]"
NA,canvas-keyboard-response,284,383674,0.0-6.0-2.46,5017,NA,NA,NA,NA,rectangles,null,null,NA,NA,critical,t,c,d,240,164,164,240,227.1683,158.0083,trueblood,0.09,w,240,164,164,240,227.1683,158.0083,39360,39360,35894.4834,tc,null,null,null,null,null,null,"[1,2]"
NA,canvas-keyboard-response,285,383845,0.0-6.0-3.46,5017,NA,NA,NA,NA,clear_screen,null,null,NA,NA,critical,t,c,d,240,164,164,240,227.1683,158.0083,trueblood,0.09,w,240,164,164,240,227.1683,158.0083,39360,39360,35894.4834,tc,null,null,null,null,null,null,"[1,2]"
NA,canvas-keyboard-response,286,385062,0.0-6.0-4.46,5017,NA,NA,NA,NA,make choice,1198,1,NA,NA,critical,t,c,d,240,164,164,240,227.1683,158.0083,trueblood,0.09,w,240,164,164,240,227.1683,158.0083,39360,39360,35894.4834,tc,null,null,null,null,null,null,"[1,2]"
NA,canvas-keyboard-response,287,385231,0.0-6.0-5.46,5017,NA,NA,NA,NA,clear_screen,null,null,NA,NA,critical,t,c,d,240,164,164,240,227.1683,158.0083,trueblood,0.09,w,240,164,164,240,227.1683,158.0083,39360,39360,35894.4834,tc,null,null,null,null,null,null,"[1,2]"
NA,canvas-keyboard-response,288,385446,0.0-6.0-0.47,5017,NA,NA,NA,NA,pre trial waiting period,null,null,NA,NA,critical,c,d,t,240,164,160.6713,232.8713,164,240,spektor,0.05,h,164,240,240,164,160.6713,232.8713,39360,39360,37415.7294,dc,null,null,null,null,null,null,"[2,1]"
NA,canvas-keyboard-response,289,385605,0.0-6.0-1.47,5017,NA,NA,NA,NA,clear_screen,null,null,NA,NA,critical,c,d,t,240,164,160.6713,232.8713,164,240,spektor,0.05,h,164,240,240,164,160.6713,232.8713,39360,39360,37415.7294,dc,null,null,null,null,null,null,"[2,1]"
NA,canvas-keyboard-response,290,386951,0.0-6.0-2.47,5017,NA,NA,NA,NA,rectangles,null,null,NA,NA,critical,c,d,t,240,164,160.6713,232.8713,164,240,spektor,0.05,h,164,240,240,164,160.6713,232.8713,39360,39360,37415.7294,dc,null,null,null,null,null,null,"[2,1]"
NA,canvas-keyboard-response,291,387122,0.0-6.0-3.47,5017,NA,NA,NA,NA,clear_screen,null,null,NA,NA,critical,c,d,t,240,164,160.6713,232.8713,164,240,spektor,0.05,h,164,240,240,164,160.6713,232.8713,39360,39360,37415.7294,dc,null,null,null,null,null,null,"[2,1]"
NA,canvas-keyboard-response,292,389029,0.0-6.0-4.47,5017,NA,NA,NA,NA,make choice,1884,1,NA,NA,critical,c,d,t,240,164,160.6713,232.8713,164,240,spektor,0.05,h,164,240,240,164,160.6713,232.8713,39360,39360,37415.7294,dc,null,null,null,null,null,null,"[2,1]"
NA,canvas-keyboard-response,293,389200,0.0-6.0-5.47,5017,NA,NA,NA,NA,clear_screen,null,null,NA,NA,critical,c,d,t,240,164,160.6713,232.8713,164,240,spektor,0.05,h,164,240,240,164,160.6713,232.8713,39360,39360,37415.7294,dc,null,null,null,null,null,null,"[2,1]"
NA,canvas-keyboard-response,294,389418,0.0-6.0-0.48,5017,NA,NA,NA,NA,pre trial waiting period,null,null,NA,NA,critical,c,d,t,240,164,154.6796,220.0396,164,240,trueblood,0.14,h,164,240,240,164,154.6796,220.0396,39360,39360,34035.6388,dc,null,null,null,null,null,null,"[2,1]"
NA,canvas-keyboard-response,295,389578,0.0-6.0-1.48,5017,NA,NA,NA,NA,clear_screen,null,null,NA,NA,critical,c,d,t,240,164,154.6796,220.0396,164,240,trueblood,0.14,h,164,240,240,164,154.6796,220.0396,39360,39360,34035.6388,dc,null,null,null,null,null,null,"[2,1]"
NA,canvas-keyboard-response,296,390923,0.0-6.0-2.48,5017,NA,NA,NA,NA,rectangles,null,null,NA,NA,critical,c,d,t,240,164,154.6796,220.0396,164,240,trueblood,0.14,h,164,240,240,164,154.6796,220.0396,39360,39360,34035.6388,dc,null,null,null,null,null,null,"[2,1]"
NA,canvas-keyboard-response,297,391094,0.0-6.0-3.48,5017,NA,NA,NA,NA,clear_screen,null,null,NA,NA,critical,c,d,t,240,164,154.6796,220.0396,164,240,trueblood,0.14,h,164,240,240,164,154.6796,220.0396,39360,39360,34035.6388,dc,null,null,null,null,null,null,"[2,1]"
NA,canvas-keyboard-response,298,392310,0.0-6.0-4.48,5017,NA,NA,NA,NA,make choice,1197,1,NA,NA,critical,c,d,t,240,164,154.6796,220.0396,164,240,trueblood,0.14,h,164,240,240,164,154.6796,220.0396,39360,39360,34035.6388,dc,null,null,null,null,null,null,"[2,1]"
NA,canvas-keyboard-response,299,392480,0.0-6.0-5.48,5017,NA,NA,NA,NA,clear_screen,null,null,NA,NA,critical,c,d,t,240,164,154.6796,220.0396,164,240,trueblood,0.14,h,164,240,240,164,154.6796,220.0396,39360,39360,34035.6388,dc,null,null,null,null,null,null,"[2,1]"
NA,canvas-keyboard-response,300,392695,0.0-6.0-0.49,5017,NA,NA,NA,NA,pre trial waiting period,null,null,NA,NA,catch,sh,l,sw,225,157,243,177,212,225,trueblood,null,null,null,null,null,null,null,null,null,null,null,NA,180,200,260,200,36000,52000,"[1,2]"
NA,canvas-keyboard-response,301,392854,0.0-6.0-1.49,5017,NA,NA,NA,NA,clear_screen,null,null,NA,NA,catch,sh,l,sw,225,157,243,177,212,225,trueblood,null,null,null,null,null,null,null,null,null,null,null,NA,180,200,260,200,36000,52000,"[1,2]"
NA,canvas-keyboard-response,302,394202,0.0-6.0-2.49,5017,NA,NA,NA,NA,rectangles,null,null,NA,NA,catch,sh,l,sw,225,157,243,177,212,225,trueblood,null,null,null,null,null,null,null,null,null,null,null,NA,180,200,260,200,36000,52000,"[1,2]"
NA,canvas-keyboard-response,303,394374,0.0-6.0-3.49,5017,NA,NA,NA,NA,clear_screen,null,null,NA,NA,catch,sh,l,sw,225,157,243,177,212,225,trueblood,null,null,null,null,null,null,null,null,null,null,null,NA,180,200,260,200,36000,52000,"[1,2]"
NA,canvas-keyboard-response,304,395910,0.0-6.0-4.49,5017,NA,NA,NA,NA,make choice,1519,2,NA,NA,catch,sh,l,sw,225,157,243,177,212,225,trueblood,null,null,null,null,null,null,null,null,null,null,null,NA,180,200,260,200,36000,52000,"[1,2]"
NA,canvas-keyboard-response,305,396080,0.0-6.0-5.49,5017,NA,NA,NA,NA,clear_screen,null,null,NA,NA,catch,sh,l,sw,225,157,243,177,212,225,trueblood,null,null,null,null,null,null,null,null,null,null,null,NA,180,200,260,200,36000,52000,"[1,2]"
NA,canvas-keyboard-response,306,396299,0.0-6.0-0.50,5017,NA,NA,NA,NA,pre trial waiting period,null,null,NA,NA,critical,t,c,d,240,164,164,240,237.1485,162.6685,spektor,0.02,w,240,164,164,240,237.1485,162.6685,39360,39360,38576.5967,tc,null,null,null,null,null,null,"[1,2]"
NA,canvas-keyboard-response,307,396461,0.0-6.0-1.50,5017,NA,NA,NA,NA,clear_screen,null,null,NA,NA,critical,t,c,d,240,164,164,240,237.1485,162.6685,spektor,0.02,w,240,164,164,240,237.1485,162.6685,39360,39360,38576.5967,tc,null,null,null,null,null,null,"[1,2]"
NA,canvas-keyboard-response,308,397807,0.0-6.0-2.50,5017,NA,NA,NA,NA,rectangles,null,null,NA,NA,critical,t,c,d,240,164,164,240,237.1485,162.6685,spektor,0.02,w,240,164,164,240,237.1485,162.6685,39360,39360,38576.5967,tc,null,null,null,null,null,null,"[1,2]"
NA,canvas-keyboard-response,309,397979,0.0-6.0-3.50,5017,NA,NA,NA,NA,clear_screen,null,null,NA,NA,critical,t,c,d,240,164,164,240,237.1485,162.6685,spektor,0.02,w,240,164,164,240,237.1485,162.6685,39360,39360,38576.5967,tc,null,null,null,null,null,null,"[1,2]"
NA,canvas-keyboard-response,310,399822,0.0-6.0-4.50,5017,NA,NA,NA,NA,make choice,1822,2,NA,NA,critical,t,c,d,240,164,164,240,237.1485,162.6685,spektor,0.02,w,240,164,164,240,237.1485,162.6685,39360,39360,38576.5967,tc,null,null,null,null,null,null,"[1,2]"
NA,canvas-keyboard-response,311,399992,0.0-6.0-5.50,5017,NA,NA,NA,NA,clear_screen,null,null,NA,NA,critical,t,c,d,240,164,164,240,237.1485,162.6685,spektor,0.02,w,240,164,164,240,237.1485,162.6685,39360,39360,38576.5967,tc,null,null,null,null,null,null,"[1,2]"
NA,canvas-keyboard-response,312,400210,0.0-6.0-0.51,5017,NA,NA,NA,NA,pre trial waiting period,null,null,NA,NA,critical,d,t,c,232.8713,160.6713,240,164,164,240,spektor,0.05,w,240,164,164,240,232.8713,160.6713,39360,39360,37415.7294,dc,null,null,null,null,null,null,"[1,3]"
NA,canvas-keyboard-response,313,400366,0.0-6.0-1.51,5017,NA,NA,NA,NA,clear_screen,null,null,NA,NA,critical,d,t,c,232.8713,160.6713,240,164,164,240,spektor,0.05,w,240,164,164,240,232.8713,160.6713,39360,39360,37415.7294,dc,null,null,null,null,null,null,"[1,3]"
NA,canvas-keyboard-response,314,401714,0.0-6.0-2.51,5017,NA,NA,NA,NA,rectangles,null,null,NA,NA,critical,d,t,c,232.8713,160.6713,240,164,164,240,spektor,0.05,w,240,164,164,240,232.8713,160.6713,39360,39360,37415.7294,dc,null,null,null,null,null,null,"[1,3]"
NA,canvas-keyboard-response,315,401894,0.0-6.0-3.51,5017,NA,NA,NA,NA,clear_screen,null,null,NA,NA,critical,d,t,c,232.8713,160.6713,240,164,164,240,spektor,0.05,w,240,164,164,240,232.8713,160.6713,39360,39360,37415.7294,dc,null,null,null,null,null,null,"[1,3]"
NA,canvas-keyboard-response,316,403264,0.0-6.0-4.51,5017,NA,NA,NA,NA,make choice,1340,3,NA,NA,critical,d,t,c,232.8713,160.6713,240,164,164,240,spektor,0.05,w,240,164,164,240,232.8713,160.6713,39360,39360,37415.7294,dc,null,null,null,null,null,null,"[1,3]"
NA,canvas-keyboard-response,317,403433,0.0-6.0-5.51,5017,NA,NA,NA,NA,clear_screen,null,null,NA,NA,critical,d,t,c,232.8713,160.6713,240,164,164,240,spektor,0.05,w,240,164,164,240,232.8713,160.6713,39360,39360,37415.7294,dc,null,null,null,null,null,null,"[1,3]"
NA,canvas-keyboard-response,318,403650,0.0-6.0-0.52,5017,NA,NA,NA,NA,pre trial waiting period,null,null,NA,NA,catch,l,sw,sh,166,243,174,169,204,154,trueblood,null,null,null,null,null,null,null,null,null,null,null,NA,180,200,260,200,36000,52000,"[1,3]"
NA,canvas-keyboard-response,319,403805,0.0-6.0-1.52,5017,NA,NA,NA,NA,clear_screen,null,null,NA,NA,catch,l,sw,sh,166,243,174,169,204,154,trueblood,null,null,null,null,null,null,null,null,null,null,null,NA,180,200,260,200,36000,52000,"[1,3]"
NA,canvas-keyboard-response,320,405151,0.0-6.0-2.52,5017,NA,NA,NA,NA,rectangles,null,null,NA,NA,catch,l,sw,sh,166,243,174,169,204,154,trueblood,null,null,null,null,null,null,null,null,null,null,null,NA,180,200,260,200,36000,52000,"[1,3]"
NA,canvas-keyboard-response,321,405322,0.0-6.0-3.52,5017,NA,NA,NA,NA,clear_screen,null,null,NA,NA,catch,l,sw,sh,166,243,174,169,204,154,trueblood,null,null,null,null,null,null,null,null,null,null,null,NA,180,200,260,200,36000,52000,"[1,3]"
NA,canvas-keyboard-response,322,406398,0.0-6.0-4.52,5017,NA,NA,NA,NA,make choice,1053,3,NA,NA,catch,l,sw,sh,166,243,174,169,204,154,trueblood,null,null,null,null,null,null,null,null,null,null,null,NA,180,200,260,200,36000,52000,"[1,3]"
NA,canvas-keyboard-response,323,406566,0.0-6.0-5.52,5017,NA,NA,NA,NA,clear_screen,null,null,NA,NA,catch,l,sw,sh,166,243,174,169,204,154,trueblood,null,null,null,null,null,null,null,null,null,null,null,NA,180,200,260,200,36000,52000,"[1,3]"
NA,canvas-keyboard-response,324,406784,0.0-6.0-0.53,5017,NA,NA,NA,NA,pre trial waiting period,null,null,NA,NA,critical,t,c,d,240,164,164,240,240,164,trueblood,0,w,240,164,164,240,240,164,39360,39360,39360,dc,null,null,null,null,null,null,"[3,2]"
NA,canvas-keyboard-response,325,406948,0.0-6.0-1.53,5017,NA,NA,NA,NA,clear_screen,null,null,NA,NA,critical,t,c,d,240,164,164,240,240,164,trueblood,0,w,240,164,164,240,240,164,39360,39360,39360,dc,null,null,null,null,null,null,"[3,2]"
NA,canvas-keyboard-response,326,408295,0.0-6.0-2.53,5017,NA,NA,NA,NA,rectangles,null,null,NA,NA,critical,t,c,d,240,164,164,240,240,164,trueblood,0,w,240,164,164,240,240,164,39360,39360,39360,dc,null,null,null,null,null,null,"[3,2]"
NA,canvas-keyboard-response,327,408469,0.0-6.0-3.53,5017,NA,NA,NA,NA,clear_screen,null,null,NA,NA,critical,t,c,d,240,164,164,240,240,164,trueblood,0,w,240,164,164,240,240,164,39360,39360,39360,dc,null,null,null,null,null,null,"[3,2]"
NA,canvas-keyboard-response,328,409350,0.0-6.0-4.53,5017,NA,NA,NA,NA,make choice,861,3,NA,NA,critical,t,c,d,240,164,164,240,240,164,trueblood,0,w,240,164,164,240,240,164,39360,39360,39360,dc,null,null,null,null,null,null,"[3,2]"
NA,canvas-keyboard-response,329,409520,0.0-6.0-5.53,5017,NA,NA,NA,NA,clear_screen,null,null,NA,NA,critical,t,c,d,240,164,164,240,240,164,trueblood,0,w,240,164,164,240,240,164,39360,39360,39360,dc,null,null,null,null,null,null,"[3,2]"
NA,canvas-keyboard-response,330,409738,0.0-6.0-0.54,5017,NA,NA,NA,NA,pre trial waiting period,null,null,NA,NA,catch,l,sh,sw,167,259,177,140,195,168,trueblood,null,null,null,null,null,null,null,null,null,null,null,NA,180,200,260,200,36000,52000,"[1,2]"
NA,canvas-keyboard-response,331,409893,0.0-6.0-1.54,5017,NA,NA,NA,NA,clear_screen,null,null,NA,NA,catch,l,sh,sw,167,259,177,140,195,168,trueblood,null,null,null,null,null,null,null,null,null,null,null,NA,180,200,260,200,36000,52000,"[1,2]"
NA,canvas-keyboard-response,332,411241,0.0-6.0-2.54,5017,NA,NA,NA,NA,rectangles,null,null,NA,NA,catch,l,sh,sw,167,259,177,140,195,168,trueblood,null,null,null,null,null,null,null,null,null,null,null,NA,180,200,260,200,36000,52000,"[1,2]"
NA,canvas-keyboard-response,333,411411,0.0-6.0-3.54,5017,NA,NA,NA,NA,clear_screen,null,null,NA,NA,catch,l,sh,sw,167,259,177,140,195,168,trueblood,null,null,null,null,null,null,null,null,null,null,null,NA,180,200,260,200,36000,52000,"[1,2]"
NA,canvas-keyboard-response,334,412926,0.0-6.0-4.54,5017,NA,NA,NA,NA,make choice,1493,2,NA,NA,catch,l,sh,sw,167,259,177,140,195,168,trueblood,null,null,null,null,null,null,null,null,null,null,null,NA,180,200,260,200,36000,52000,"[1,2]"
NA,canvas-keyboard-response,335,413095,0.0-6.0-5.54,5017,NA,NA,NA,NA,clear_screen,null,null,NA,NA,catch,l,sh,sw,167,259,177,140,195,168,trueblood,null,null,null,null,null,null,null,null,null,null,null,NA,180,200,260,200,36000,52000,"[1,2]"
NA,canvas-keyboard-response,336,413314,0.0-6.0-0.55,5017,NA,NA,NA,NA,pre trial waiting period,null,null,NA,NA,catch,sh,sw,l,163,197,140,164,165,275,trueblood,null,null,null,null,null,null,null,null,null,null,null,NA,180,200,260,200,36000,52000,"[1,3]"
NA,canvas-keyboard-response,337,413471,0.0-6.0-1.55,5017,NA,NA,NA,NA,clear_screen,null,null,NA,NA,catch,sh,sw,l,163,197,140,164,165,275,trueblood,null,null,null,null,null,null,null,null,null,null,null,NA,180,200,260,200,36000,52000,"[1,3]"
NA,canvas-keyboard-response,338,414819,0.0-6.0-2.55,5017,NA,NA,NA,NA,rectangles,null,null,NA,NA,catch,sh,sw,l,163,197,140,164,165,275,trueblood,null,null,null,null,null,null,null,null,null,null,null,NA,180,200,260,200,36000,52000,"[1,3]"
NA,canvas-keyboard-response,339,414992,0.0-6.0-3.55,5017,NA,NA,NA,NA,clear_screen,null,null,NA,NA,catch,sh,sw,l,163,197,140,164,165,275,trueblood,null,null,null,null,null,null,null,null,null,null,null,NA,180,200,260,200,36000,52000,"[1,3]"
NA,canvas-keyboard-response,340,415662,0.0-6.0-4.55,5017,NA,NA,NA,NA,make choice,650,3,NA,NA,catch,sh,sw,l,163,197,140,164,165,275,trueblood,null,null,null,null,null,null,null,null,null,null,null,NA,180,200,260,200,36000,52000,"[1,3]"
NA,canvas-keyboard-response,341,415832,0.0-6.0-5.55,5017,NA,NA,NA,NA,clear_screen,null,null,NA,NA,catch,sh,sw,l,163,197,140,164,165,275,trueblood,null,null,null,null,null,null,null,null,null,null,null,NA,180,200,260,200,36000,52000,"[1,3]"
NA,canvas-keyboard-response,342,416051,0.0-6.0-0.56,5017,NA,NA,NA,NA,pre trial waiting period,null,null,NA,NA,catch,sw,l,sh,180,200,165,266,167,155,spektor,null,null,null,null,null,null,null,null,null,null,null,NA,180,200,260,200,36000,52000,"[2,3]"
NA,canvas-keyboard-response,343,416209,0.0-6.0-1.56,5017,NA,NA,NA,NA,clear_screen,null,null,NA,NA,catch,sw,l,sh,180,200,165,266,167,155,spektor,null,null,null,null,null,null,null,null,null,null,null,NA,180,200,260,200,36000,52000,"[2,3]"
NA,canvas-keyboard-response,344,417555,0.0-6.0-2.56,5017,NA,NA,NA,NA,rectangles,null,null,NA,NA,catch,sw,l,sh,180,200,165,266,167,155,spektor,null,null,null,null,null,null,null,null,null,null,null,NA,180,200,260,200,36000,52000,"[2,3]"
NA,canvas-keyboard-response,345,417728,0.0-6.0-3.56,5017,NA,NA,NA,NA,clear_screen,null,null,NA,NA,catch,sw,l,sh,180,200,165,266,167,155,spektor,null,null,null,null,null,null,null,null,null,null,null,NA,180,200,260,200,36000,52000,"[2,3]"
NA,canvas-keyboard-response,346,418518,0.0-6.0-4.56,5017,NA,NA,NA,NA,make choice,768,2,NA,NA,catch,sw,l,sh,180,200,165,266,167,155,spektor,null,null,null,null,null,null,null,null,null,null,null,NA,180,200,260,200,36000,52000,"[2,3]"
NA,canvas-keyboard-response,347,418689,0.0-6.0-5.56,5017,NA,NA,NA,NA,clear_screen,null,null,NA,NA,catch,sw,l,sh,180,200,165,266,167,155,spektor,null,null,null,null,null,null,null,null,null,null,null,NA,180,200,260,200,36000,52000,"[2,3]"
NA,canvas-keyboard-response,348,418905,0.0-6.0-0.57,5017,NA,NA,NA,NA,pre trial waiting period,null,null,NA,NA,catch,sh,l,sw,193,219,285,236,180,193,trueblood,null,null,null,null,null,null,null,null,null,null,null,NA,180,200,260,200,36000,52000,"[2,3]"
NA,canvas-keyboard-response,349,419059,0.0-6.0-1.57,5017,NA,NA,NA,NA,clear_screen,null,null,NA,NA,catch,sh,l,sw,193,219,285,236,180,193,trueblood,null,null,null,null,null,null,null,null,null,null,null,NA,180,200,260,200,36000,52000,"[2,3]"
NA,canvas-keyboard-response,350,420404,0.0-6.0-2.57,5017,NA,NA,NA,NA,rectangles,null,null,NA,NA,catch,sh,l,sw,193,219,285,236,180,193,trueblood,null,null,null,null,null,null,null,null,null,null,null,NA,180,200,260,200,36000,52000,"[2,3]"
NA,canvas-keyboard-response,351,420579,0.0-6.0-3.57,5017,NA,NA,NA,NA,clear_screen,null,null,NA,NA,catch,sh,l,sw,193,219,285,236,180,193,trueblood,null,null,null,null,null,null,null,null,null,null,null,NA,180,200,260,200,36000,52000,"[2,3]"
NA,canvas-keyboard-response,352,421149,0.0-6.0-4.57,5017,NA,NA,NA,NA,make choice,550,2,NA,NA,catch,sh,l,sw,193,219,285,236,180,193,trueblood,null,null,null,null,null,null,null,null,null,null,null,NA,180,200,260,200,36000,52000,"[2,3]"
NA,canvas-keyboard-response,353,421317,0.0-6.0-5.57,5017,NA,NA,NA,NA,clear_screen,null,null,NA,NA,catch,sh,l,sw,193,219,285,236,180,193,trueblood,null,null,null,null,null,null,null,null,null,null,null,NA,180,200,260,200,36000,52000,"[2,3]"
NA,canvas-keyboard-response,354,421537,0.0-6.0-0.58,5017,NA,NA,NA,NA,pre trial waiting period,null,null,NA,NA,critical,c,d,t,164,240,220.0396,154.6796,240,164,spektor,0.14,w,240,164,164,240,220.0396,154.6796,39360,39360,34035.6388,dc,null,null,null,null,null,null,"[2,1]"
NA,canvas-keyboard-response,355,421698,0.0-6.0-1.58,5017,NA,NA,NA,NA,clear_screen,null,null,NA,NA,critical,c,d,t,164,240,220.0396,154.6796,240,164,spektor,0.14,w,240,164,164,240,220.0396,154.6796,39360,39360,34035.6388,dc,null,null,null,null,null,null,"[2,1]"
NA,canvas-keyboard-response,356,423043,0.0-6.0-2.58,5017,NA,NA,NA,NA,rectangles,null,null,NA,NA,critical,c,d,t,164,240,220.0396,154.6796,240,164,spektor,0.14,w,240,164,164,240,220.0396,154.6796,39360,39360,34035.6388,dc,null,null,null,null,null,null,"[2,1]"
NA,canvas-keyboard-response,357,423216,0.0-6.0-3.58,5017,NA,NA,NA,NA,clear_screen,null,null,NA,NA,critical,c,d,t,164,240,220.0396,154.6796,240,164,spektor,0.14,w,240,164,164,240,220.0396,154.6796,39360,39360,34035.6388,dc,null,null,null,null,null,null,"[2,1]"
NA,canvas-keyboard-response,358,424149,0.0-6.0-4.58,5017,NA,NA,NA,NA,make choice,913,1,NA,NA,critical,c,d,t,164,240,220.0396,154.6796,240,164,spektor,0.14,w,240,164,164,240,220.0396,154.6796,39360,39360,34035.6388,dc,null,null,null,null,null,null,"[2,1]"
NA,canvas-keyboard-response,359,424320,0.0-6.0-5.58,5017,NA,NA,NA,NA,clear_screen,null,null,NA,NA,critical,c,d,t,164,240,220.0396,154.6796,240,164,spektor,0.14,w,240,164,164,240,220.0396,154.6796,39360,39360,34035.6388,dc,null,null,null,null,null,null,"[2,1]"
NA,canvas-keyboard-response,360,424539,0.0-6.0-0.59,5017,NA,NA,NA,NA,pre trial waiting period,null,null,NA,NA,catch,sh,sw,l,228,168,149,222,219,290,spektor,null,null,null,null,null,null,null,null,null,null,null,NA,180,200,260,200,36000,52000,"[1,3]"
NA,canvas-keyboard-response,361,424695,0.0-6.0-1.59,5017,NA,NA,NA,NA,clear_screen,null,null,NA,NA,catch,sh,sw,l,228,168,149,222,219,290,spektor,null,null,null,null,null,null,null,null,null,null,null,NA,180,200,260,200,36000,52000,"[1,3]"
NA,canvas-keyboard-response,362,426044,0.0-6.0-2.59,5017,NA,NA,NA,NA,rectangles,null,null,NA,NA,catch,sh,sw,l,228,168,149,222,219,290,spektor,null,null,null,null,null,null,null,null,null,null,null,NA,180,200,260,200,36000,52000,"[1,3]"
NA,canvas-keyboard-response,363,426215,0.0-6.0-3.59,5017,NA,NA,NA,NA,clear_screen,null,null,NA,NA,catch,sh,sw,l,228,168,149,222,219,290,spektor,null,null,null,null,null,null,null,null,null,null,null,NA,180,200,260,200,36000,52000,"[1,3]"
NA,canvas-keyboard-response,364,426892,0.0-6.0-4.59,5017,NA,NA,NA,NA,make choice,655,3,NA,NA,catch,sh,sw,l,228,168,149,222,219,290,spektor,null,null,null,null,null,null,null,null,null,null,null,NA,180,200,260,200,36000,52000,"[1,3]"
NA,canvas-keyboard-response,365,427061,0.0-6.0-5.59,5017,NA,NA,NA,NA,clear_screen,null,null,NA,NA,catch,sh,sw,l,228,168,149,222,219,290,spektor,null,null,null,null,null,null,null,null,null,null,null,NA,180,200,260,200,36000,52000,"[1,3]"
NA,canvas-keyboard-response,366,427281,0.0-6.0-0.60,5017,NA,NA,NA,NA,pre trial waiting period,null,null,NA,NA,catch,sw,l,sh,180,200,287,221,198,164,trueblood,null,null,null,null,null,null,null,null,null,null,null,NA,180,200,260,200,36000,52000,"[1,2]"
NA,canvas-keyboard-response,367,427441,0.0-6.0-1.60,5017,NA,NA,NA,NA,clear_screen,null,null,NA,NA,catch,sw,l,sh,180,200,287,221,198,164,trueblood,null,null,null,null,null,null,null,null,null,null,null,NA,180,200,260,200,36000,52000,"[1,2]"
NA,canvas-keyboard-response,368,428788,0.0-6.0-2.60,5017,NA,NA,NA,NA,rectangles,null,null,NA,NA,catch,sw,l,sh,180,200,287,221,198,164,trueblood,null,null,null,null,null,null,null,null,null,null,null,NA,180,200,260,200,36000,52000,"[1,2]"
NA,canvas-keyboard-response,369,428960,0.0-6.0-3.60,5017,NA,NA,NA,NA,clear_screen,null,null,NA,NA,catch,sw,l,sh,180,200,287,221,198,164,trueblood,null,null,null,null,null,null,null,null,null,null,null,NA,180,200,260,200,36000,52000,"[1,2]"
NA,canvas-keyboard-response,370,429734,0.0-6.0-4.60,5017,NA,NA,NA,NA,make choice,751,2,NA,NA,catch,sw,l,sh,180,200,287,221,198,164,trueblood,null,null,null,null,null,null,null,null,null,null,null,NA,180,200,260,200,36000,52000,"[1,2]"
NA,canvas-keyboard-response,371,429906,0.0-6.0-5.60,5017,NA,NA,NA,NA,clear_screen,null,null,NA,NA,catch,sw,l,sh,180,200,287,221,198,164,trueblood,null,null,null,null,null,null,null,null,null,null,null,NA,180,200,260,200,36000,52000,"[1,2]"
NA,canvas-keyboard-response,372,430126,0.0-6.0-0.61,5017,NA,NA,NA,NA,pre trial waiting period,null,null,NA,NA,critical,d,c,t,240,164,164,240,240,164,spektor,0,w,240,164,164,240,240,164,39360,39360,39360,td,null,null,null,null,null,null,"[3,1]"
NA,canvas-keyboard-response,373,430286,0.0-6.0-1.61,5017,NA,NA,NA,NA,clear_screen,null,null,NA,NA,critical,d,c,t,240,164,164,240,240,164,spektor,0,w,240,164,164,240,240,164,39360,39360,39360,td,null,null,null,null,null,null,"[3,1]"
NA,canvas-keyboard-response,374,431632,0.0-6.0-2.61,5017,NA,NA,NA,NA,rectangles,null,null,NA,NA,critical,d,c,t,240,164,164,240,240,164,spektor,0,w,240,164,164,240,240,164,39360,39360,39360,td,null,null,null,null,null,null,"[3,1]"
NA,canvas-keyboard-response,375,431804,0.0-6.0-3.61,5017,NA,NA,NA,NA,clear_screen,null,null,NA,NA,critical,d,c,t,240,164,164,240,240,164,spektor,0,w,240,164,164,240,240,164,39360,39360,39360,td,null,null,null,null,null,null,"[3,1]"
NA,canvas-keyboard-response,376,432630,0.0-6.0-4.61,5017,NA,NA,NA,NA,make choice,803,3,NA,NA,critical,d,c,t,240,164,164,240,240,164,spektor,0,w,240,164,164,240,240,164,39360,39360,39360,td,null,null,null,null,null,null,"[3,1]"
NA,canvas-keyboard-response,377,432800,0.0-6.0-5.61,5017,NA,NA,NA,NA,clear_screen,null,null,NA,NA,critical,d,c,t,240,164,164,240,240,164,spektor,0,w,240,164,164,240,240,164,39360,39360,39360,td,null,null,null,null,null,null,"[3,1]"
NA,canvas-keyboard-response,378,433020,0.0-6.0-0.62,5017,NA,NA,NA,NA,pre trial waiting period,null,null,NA,NA,critical,d,c,t,158.0083,227.1683,240,164,164,240,trueblood,0.09,h,164,240,240,164,158.0083,227.1683,39360,39360,35894.4834,td,null,null,null,null,null,null,"[3,1]"
NA,canvas-keyboard-response,379,433180,0.0-6.0-1.62,5017,NA,NA,NA,NA,clear_screen,null,null,NA,NA,critical,d,c,t,158.0083,227.1683,240,164,164,240,trueblood,0.09,h,164,240,240,164,158.0083,227.1683,39360,39360,35894.4834,td,null,null,null,null,null,null,"[3,1]"
NA,canvas-keyboard-response,380,434530,0.0-6.0-2.62,5017,NA,NA,NA,NA,rectangles,null,null,NA,NA,critical,d,c,t,158.0083,227.1683,240,164,164,240,trueblood,0.09,h,164,240,240,164,158.0083,227.1683,39360,39360,35894.4834,td,null,null,null,null,null,null,"[3,1]"
NA,canvas-keyboard-response,381,434704,0.0-6.0-3.62,5017,NA,NA,NA,NA,clear_screen,null,null,NA,NA,critical,d,c,t,158.0083,227.1683,240,164,164,240,trueblood,0.09,h,164,240,240,164,158.0083,227.1683,39360,39360,35894.4834,td,null,null,null,null,null,null,"[3,1]"
NA,canvas-keyboard-response,382,436799,0.0-6.0-4.62,5017,NA,NA,NA,NA,make choice,2070,3,NA,NA,critical,d,c,t,158.0083,227.1683,240,164,164,240,trueblood,0.09,h,164,240,240,164,158.0083,227.1683,39360,39360,35894.4834,td,null,null,null,null,null,null,"[3,1]"
NA,canvas-keyboard-response,383,436977,0.0-6.0-5.62,5017,NA,NA,NA,NA,clear_screen,null,null,NA,NA,critical,d,c,t,158.0083,227.1683,240,164,164,240,trueblood,0.09,h,164,240,240,164,158.0083,227.1683,39360,39360,35894.4834,td,null,null,null,null,null,null,"[3,1]"
NA,canvas-keyboard-response,384,437206,0.0-6.0-0.63,5017,NA,NA,NA,NA,pre trial waiting period,null,null,NA,NA,critical,d,t,c,232.8713,160.6713,240,164,164,240,spektor,0.05,w,240,164,164,240,232.8713,160.6713,39360,39360,37415.7294,td,null,null,null,null,null,null,"[2,1]"
NA,canvas-keyboard-response,385,437371,0.0-6.0-1.63,5017,NA,NA,NA,NA,clear_screen,null,null,NA,NA,critical,d,t,c,232.8713,160.6713,240,164,164,240,spektor,0.05,w,240,164,164,240,232.8713,160.6713,39360,39360,37415.7294,td,null,null,null,null,null,null,"[2,1]"
NA,canvas-keyboard-response,386,438721,0.0-6.0-2.63,5017,NA,NA,NA,NA,rectangles,null,null,NA,NA,critical,d,t,c,232.8713,160.6713,240,164,164,240,spektor,0.05,w,240,164,164,240,232.8713,160.6713,39360,39360,37415.7294,td,null,null,null,null,null,null,"[2,1]"
NA,canvas-keyboard-response,387,438897,0.0-6.0-3.63,5017,NA,NA,NA,NA,clear_screen,null,null,NA,NA,critical,d,t,c,232.8713,160.6713,240,164,164,240,spektor,0.05,w,240,164,164,240,232.8713,160.6713,39360,39360,37415.7294,td,null,null,null,null,null,null,"[2,1]"
NA,canvas-keyboard-response,388,440222,0.0-6.0-4.63,5017,NA,NA,NA,NA,make choice,1302,2,NA,NA,critical,d,t,c,232.8713,160.6713,240,164,164,240,spektor,0.05,w,240,164,164,240,232.8713,160.6713,39360,39360,37415.7294,td,null,null,null,null,null,null,"[2,1]"
NA,canvas-keyboard-response,389,440393,0.0-6.0-5.63,5017,NA,NA,NA,NA,clear_screen,null,null,NA,NA,critical,d,t,c,232.8713,160.6713,240,164,164,240,spektor,0.05,w,240,164,164,240,232.8713,160.6713,39360,39360,37415.7294,td,null,null,null,null,null,null,"[2,1]"
NA,canvas-keyboard-response,390,440613,0.0-6.0-0.64,5017,NA,NA,NA,NA,pre trial waiting period,null,null,NA,NA,catch,sw,sh,l,180,200,177,200,174,292,spektor,null,null,null,null,null,null,null,null,null,null,null,NA,180,200,260,200,36000,52000,"[2,3]"
NA,canvas-keyboard-response,391,440769,0.0-6.0-1.64,5017,NA,NA,NA,NA,clear_screen,null,null,NA,NA,catch,sw,sh,l,180,200,177,200,174,292,spektor,null,null,null,null,null,null,null,null,null,null,null,NA,180,200,260,200,36000,52000,"[2,3]"
NA,canvas-keyboard-response,392,442119,0.0-6.0-2.64,5017,NA,NA,NA,NA,rectangles,null,null,NA,NA,catch,sw,sh,l,180,200,177,200,174,292,spektor,null,null,null,null,null,null,null,null,null,null,null,NA,180,200,260,200,36000,52000,"[2,3]"
NA,canvas-keyboard-response,393,442293,0.0-6.0-3.64,5017,NA,NA,NA,NA,clear_screen,null,null,NA,NA,catch,sw,sh,l,180,200,177,200,174,292,spektor,null,null,null,null,null,null,null,null,null,null,null,NA,180,200,260,200,36000,52000,"[2,3]"
NA,canvas-keyboard-response,394,443110,0.0-6.0-4.64,5017,NA,NA,NA,NA,make choice,797,3,NA,NA,catch,sw,sh,l,180,200,177,200,174,292,spektor,null,null,null,null,null,null,null,null,null,null,null,NA,180,200,260,200,36000,52000,"[2,3]"
NA,canvas-keyboard-response,395,443284,0.0-6.0-5.64,5017,NA,NA,NA,NA,clear_screen,null,null,NA,NA,catch,sw,sh,l,180,200,177,200,174,292,spektor,null,null,null,null,null,null,null,null,null,null,null,NA,180,200,260,200,36000,52000,"[2,3]"
NA,canvas-keyboard-response,396,443504,0.0-6.0-0.65,5017,NA,NA,NA,NA,pre trial waiting period,null,null,NA,NA,critical,d,c,t,237.1485,162.6685,164,240,240,164,spektor,0.02,w,240,164,164,240,237.1485,162.6685,39360,39360,38576.5967,dc,null,null,null,null,null,null,"[1,2]"
NA,canvas-keyboard-response,397,443657,0.0-6.0-1.65,5017,NA,NA,NA,NA,clear_screen,null,null,NA,NA,critical,d,c,t,237.1485,162.6685,164,240,240,164,spektor,0.02,w,240,164,164,240,237.1485,162.6685,39360,39360,38576.5967,dc,null,null,null,null,null,null,"[1,2]"
NA,canvas-keyboard-response,398,445005,0.0-6.0-2.65,5017,NA,NA,NA,NA,rectangles,null,null,NA,NA,critical,d,c,t,237.1485,162.6685,164,240,240,164,spektor,0.02,w,240,164,164,240,237.1485,162.6685,39360,39360,38576.5967,dc,null,null,null,null,null,null,"[1,2]"
