success,trial_type,trial_index,time_elapsed,internal_node_id,sub_n,timeout,failed_images,failed_audio,failed_video,screen_id,rt,response,stimulus,view_history,trial,r1,r2,r3,w1,h1,w2,h2,w3,h3,display,tdd,tdo,tw,th,cw,ch,dw,dh,ta,ca,da,probe,csls,csss,clls,clss,sa,la,probe_rects
TRUE,fullscreen,0,4998,0.0-0.0,65,,,,,,,,,,,,,,,,,,,,,,,,,,,,,,,,,,,,,,,
TRUE,preload,1,5010,0.0-1.0,65,FALSE,[],[],[],img preload,,,,,,,,,,,,,,,,,,,,,,,,,,,,,,,,,,
,survey-html-form,2,9688,0.0-2.0,65,,,,,enter-sub-number,4675,"{""response"":""48""}",,,,,,,,,,,,,,,,,,,,,,,,,,,,,,,,
,image-button-response,3,71350,0.0-3.0,65,,,,,,61596,0,consent.png,,,,,,,,,,,,,,,,,,,,,,,,,,,,,,,
,html-button-response,4,80925,0.0-4.0,65,,,,,intro mssg,9568,0,"<div style= ""font-size:25px;"" <p> <strong> Welcome! </strong><br> <p style=""color:#8B0000; font-size:25px;""><strong> Please do NOT exit full screen until you are done with the experiment. </strong> </p><p style=""font-size:25px;color:#8B0000;""> <strong> Your data will be lost <br> if you try to go back or refresh the page after the experiment starts. Feel free to click ""previous"" during the instructions, however.</strong> </p><br><p> <strong> Thanks in advance for your contribution to our research! </strong></p>",,,,,,,,,,,,,,,,,,,,,,,,,,,,,,,
,instructions,5,131116,0.0-5.0,65,,,,,instructions,50187,,,"[{""page_index"":0,""viewing_time"":8907},{""page_index"":1,""viewing_time"":8440},{""page_index"":2,""viewing_time"":5056},{""page_index"":3,""viewing_time"":15224},{""page_index"":4,""viewing_time"":5800},{""page_index"":5,""viewing_time"":2792},{""page_index"":6,""viewing_time"":2184},{""page_index"":7,""viewing_time"":1784}]",,,,,,,,,,,,,,,,,,,,,,,,,,,,,,
,canvas-keyboard-response,6,131321,0.0-6.0-0.0,65,,,,,pre trial waiting period,null,null,,,catch,l,sw,sh,215,273,181,204,207,216,trueblood,null,null,null,null,null,null,null,null,null,null,null,,180,200,260,200,36000,52000,"[1,3]"
,canvas-keyboard-response,7,131483,0.0-6.0-1.0,65,,,,,clear_screen,null,null,,,catch,l,sw,sh,215,273,181,204,207,216,trueblood,null,null,null,null,null,null,null,null,null,null,null,,180,200,260,200,36000,52000,"[1,3]"
,canvas-keyboard-response,8,132823,0.0-6.0-2.0,65,,,,,rectangles,null,null,,,catch,l,sw,sh,215,273,181,204,207,216,trueblood,null,null,null,null,null,null,null,null,null,null,null,,180,200,260,200,36000,52000,"[1,3]"
,canvas-keyboard-response,9,132982,0.0-6.0-3.0,65,,,,,clear_screen,null,null,,,catch,l,sw,sh,215,273,181,204,207,216,trueblood,null,null,null,null,null,null,null,null,null,null,null,,180,200,260,200,36000,52000,"[1,3]"
,canvas-keyboard-response,10,134988,0.0-6.0-4.0,65,,,,,make choice,1990,1,,,catch,l,sw,sh,215,273,181,204,207,216,trueblood,null,null,null,null,null,null,null,null,null,null,null,,180,200,260,200,36000,52000,"[1,3]"
,canvas-keyboard-response,11,135148,0.0-6.0-5.0,65,,,,,clear_screen,null,null,,,catch,l,sw,sh,215,273,181,204,207,216,trueblood,null,null,null,null,null,null,null,null,null,null,null,,180,200,260,200,36000,52000,"[1,3]"
,canvas-keyboard-response,12,135350,0.0-6.0-0.1,65,,,,,pre trial waiting period,null,null,,,critical,d,c,t,220.0396,154.6796,164,240,240,164,spektor,0.14,w,240,164,164,240,220.0396,154.6796,39360,39360,34035.6388,dc,null,null,null,null,null,null,"[1,2]"
,canvas-keyboard-response,13,135508,0.0-6.0-1.1,65,,,,,clear_screen,null,null,,,critical,d,c,t,220.0396,154.6796,164,240,240,164,spektor,0.14,w,240,164,164,240,220.0396,154.6796,39360,39360,34035.6388,dc,null,null,null,null,null,null,"[1,2]"
,canvas-keyboard-response,14,136843,0.0-6.0-2.1,65,,,,,rectangles,null,null,,,critical,d,c,t,220.0396,154.6796,164,240,240,164,spektor,0.14,w,240,164,164,240,220.0396,154.6796,39360,39360,34035.6388,dc,null,null,null,null,null,null,"[1,2]"
,canvas-keyboard-response,15,137003,0.0-6.0-3.1,65,,,,,clear_screen,null,null,,,critical,d,c,t,220.0396,154.6796,164,240,240,164,spektor,0.14,w,240,164,164,240,220.0396,154.6796,39360,39360,34035.6388,dc,null,null,null,null,null,null,"[1,2]"
,canvas-keyboard-response,16,138700,0.0-6.0-4.1,65,,,,,make choice,1686,2,,,critical,d,c,t,220.0396,154.6796,164,240,240,164,spektor,0.14,w,240,164,164,240,220.0396,154.6796,39360,39360,34035.6388,dc,null,null,null,null,null,null,"[1,2]"
,canvas-keyboard-response,17,138860,0.0-6.0-5.1,65,,,,,clear_screen,null,null,,,critical,d,c,t,220.0396,154.6796,164,240,240,164,spektor,0.14,w,240,164,164,240,220.0396,154.6796,39360,39360,34035.6388,dc,null,null,null,null,null,null,"[1,2]"
,canvas-keyboard-response,18,139062,0.0-6.0-0.2,65,,,,,pre trial waiting period,null,null,,,critical,d,t,c,154.6796,220.0396,164,240,240,164,trueblood,0.14,h,164,240,240,164,154.6796,220.0396,39360,39360,34035.6388,td,null,null,null,null,null,null,"[2,1]"
,canvas-keyboard-response,19,139225,0.0-6.0-1.2,65,,,,,clear_screen,null,null,,,critical,d,t,c,154.6796,220.0396,164,240,240,164,trueblood,0.14,h,164,240,240,164,154.6796,220.0396,39360,39360,34035.6388,td,null,null,null,null,null,null,"[2,1]"
,canvas-keyboard-response,20,140561,0.0-6.0-2.2,65,,,,,rectangles,null,null,,,critical,d,t,c,154.6796,220.0396,164,240,240,164,trueblood,0.14,h,164,240,240,164,154.6796,220.0396,39360,39360,34035.6388,td,null,null,null,null,null,null,"[2,1]"
,canvas-keyboard-response,21,140721,0.0-6.0-3.2,65,,,,,clear_screen,null,null,,,critical,d,t,c,154.6796,220.0396,164,240,240,164,trueblood,0.14,h,164,240,240,164,154.6796,220.0396,39360,39360,34035.6388,td,null,null,null,null,null,null,"[2,1]"
,canvas-keyboard-response,22,142772,0.0-6.0-4.2,65,,,,,make choice,2043,2,,,critical,d,t,c,154.6796,220.0396,164,240,240,164,trueblood,0.14,h,164,240,240,164,154.6796,220.0396,39360,39360,34035.6388,td,null,null,null,null,null,null,"[2,1]"
,canvas-keyboard-response,23,142930,0.0-6.0-5.2,65,,,,,clear_screen,null,null,,,critical,d,t,c,154.6796,220.0396,164,240,240,164,trueblood,0.14,h,164,240,240,164,154.6796,220.0396,39360,39360,34035.6388,td,null,null,null,null,null,null,"[2,1]"
,canvas-keyboard-response,24,143133,0.0-6.0-0.3,65,,,,,pre trial waiting period,null,null,,,critical,d,c,t,237.1485,162.6685,164,240,240,164,trueblood,0.02,w,240,164,164,240,237.1485,162.6685,39360,39360,38576.5967,dc,null,null,null,null,null,null,"[1,2]"
,canvas-keyboard-response,25,143293,0.0-6.0-1.3,65,,,,,clear_screen,null,null,,,critical,d,c,t,237.1485,162.6685,164,240,240,164,trueblood,0.02,w,240,164,164,240,237.1485,162.6685,39360,39360,38576.5967,dc,null,null,null,null,null,null,"[1,2]"
,canvas-keyboard-response,26,144630,0.0-6.0-2.3,65,,,,,rectangles,null,null,,,critical,d,c,t,237.1485,162.6685,164,240,240,164,trueblood,0.02,w,240,164,164,240,237.1485,162.6685,39360,39360,38576.5967,dc,null,null,null,null,null,null,"[1,2]"
,canvas-keyboard-response,27,144792,0.0-6.0-3.3,65,,,,,clear_screen,null,null,,,critical,d,c,t,237.1485,162.6685,164,240,240,164,trueblood,0.02,w,240,164,164,240,237.1485,162.6685,39360,39360,38576.5967,dc,null,null,null,null,null,null,"[1,2]"
,canvas-keyboard-response,28,146586,0.0-6.0-4.3,65,,,,,make choice,1785,1,,,critical,d,c,t,237.1485,162.6685,164,240,240,164,trueblood,0.02,w,240,164,164,240,237.1485,162.6685,39360,39360,38576.5967,dc,null,null,null,null,null,null,"[1,2]"
,canvas-keyboard-response,29,146740,0.0-6.0-5.3,65,,,,,clear_screen,null,null,,,critical,d,c,t,237.1485,162.6685,164,240,240,164,trueblood,0.02,w,240,164,164,240,237.1485,162.6685,39360,39360,38576.5967,dc,null,null,null,null,null,null,"[1,2]"
,canvas-keyboard-response,30,146942,0.0-6.0-0.4,65,,,,,pre trial waiting period,null,null,,,catch,sh,l,sw,210,154,195,244,214,223,spektor,null,null,null,null,null,null,null,null,null,null,null,,180,200,260,200,36000,52000,"[1,2]"
,canvas-keyboard-response,31,147102,0.0-6.0-1.4,65,,,,,clear_screen,null,null,,,catch,sh,l,sw,210,154,195,244,214,223,spektor,null,null,null,null,null,null,null,null,null,null,null,,180,200,260,200,36000,52000,"[1,2]"
,canvas-keyboard-response,32,148438,0.0-6.0-2.4,65,,,,,rectangles,null,null,,,catch,sh,l,sw,210,154,195,244,214,223,spektor,null,null,null,null,null,null,null,null,null,null,null,,180,200,260,200,36000,52000,"[1,2]"
,canvas-keyboard-response,33,148593,0.0-6.0-3.4,65,,,,,clear_screen,null,null,,,catch,sh,l,sw,210,154,195,244,214,223,spektor,null,null,null,null,null,null,null,null,null,null,null,,180,200,260,200,36000,52000,"[1,2]"
,canvas-keyboard-response,34,150100,0.0-6.0-4.4,65,,,,,make choice,1495,2,,,catch,sh,l,sw,210,154,195,244,214,223,spektor,null,null,null,null,null,null,null,null,null,null,null,,180,200,260,200,36000,52000,"[1,2]"
,canvas-keyboard-response,35,150257,0.0-6.0-5.4,65,,,,,clear_screen,null,null,,,catch,sh,l,sw,210,154,195,244,214,223,spektor,null,null,null,null,null,null,null,null,null,null,null,,180,200,260,200,36000,52000,"[1,2]"
,canvas-keyboard-response,36,150459,0.0-6.0-0.5,65,,,,,pre trial waiting period,null,null,,,critical,c,d,t,240,164,162.6685,237.1485,164,240,trueblood,0.02,h,164,240,240,164,162.6685,237.1485,39360,39360,38576.5967,tc,null,null,null,null,null,null,"[3,1]"
,canvas-keyboard-response,37,150621,0.0-6.0-1.5,65,,,,,clear_screen,null,null,,,critical,c,d,t,240,164,162.6685,237.1485,164,240,trueblood,0.02,h,164,240,240,164,162.6685,237.1485,39360,39360,38576.5967,tc,null,null,null,null,null,null,"[3,1]"
,canvas-keyboard-response,38,151957,0.0-6.0-2.5,65,,,,,rectangles,null,null,,,critical,c,d,t,240,164,162.6685,237.1485,164,240,trueblood,0.02,h,164,240,240,164,162.6685,237.1485,39360,39360,38576.5967,tc,null,null,null,null,null,null,"[3,1]"
,canvas-keyboard-response,39,152118,0.0-6.0-3.5,65,,,,,clear_screen,null,null,,,critical,c,d,t,240,164,162.6685,237.1485,164,240,trueblood,0.02,h,164,240,240,164,162.6685,237.1485,39360,39360,38576.5967,tc,null,null,null,null,null,null,"[3,1]"
,canvas-keyboard-response,40,153476,0.0-6.0-4.5,65,,,,,make choice,1349,3,,,critical,c,d,t,240,164,162.6685,237.1485,164,240,trueblood,0.02,h,164,240,240,164,162.6685,237.1485,39360,39360,38576.5967,tc,null,null,null,null,null,null,"[3,1]"
,canvas-keyboard-response,41,153638,0.0-6.0-5.5,65,,,,,clear_screen,null,null,,,critical,c,d,t,240,164,162.6685,237.1485,164,240,trueblood,0.02,h,164,240,240,164,162.6685,237.1485,39360,39360,38576.5967,tc,null,null,null,null,null,null,"[3,1]"
,canvas-keyboard-response,42,153840,0.0-6.0-0.6,65,,,,,pre trial waiting period,null,null,,,critical,t,c,d,164,240,240,164,158.0083,227.1683,spektor,0.09,h,164,240,240,164,158.0083,227.1683,39360,39360,35894.4834,td,null,null,null,null,null,null,"[1,3]"
,canvas-keyboard-response,43,153998,0.0-6.0-1.6,65,,,,,clear_screen,null,null,,,critical,t,c,d,164,240,240,164,158.0083,227.1683,spektor,0.09,h,164,240,240,164,158.0083,227.1683,39360,39360,35894.4834,td,null,null,null,null,null,null,"[1,3]"
,canvas-keyboard-response,44,155330,0.0-6.0-2.6,65,,,,,rectangles,null,null,,,critical,t,c,d,164,240,240,164,158.0083,227.1683,spektor,0.09,h,164,240,240,164,158.0083,227.1683,39360,39360,35894.4834,td,null,null,null,null,null,null,"[1,3]"
,canvas-keyboard-response,45,155489,0.0-6.0-3.6,65,,,,,clear_screen,null,null,,,critical,t,c,d,164,240,240,164,158.0083,227.1683,spektor,0.09,h,164,240,240,164,158.0083,227.1683,39360,39360,35894.4834,td,null,null,null,null,null,null,"[1,3]"
,canvas-keyboard-response,46,157588,0.0-6.0-4.6,65,,,,,make choice,2089,1,,,critical,t,c,d,164,240,240,164,158.0083,227.1683,spektor,0.09,h,164,240,240,164,158.0083,227.1683,39360,39360,35894.4834,td,null,null,null,null,null,null,"[1,3]"
,canvas-keyboard-response,47,157748,0.0-6.0-5.6,65,,,,,clear_screen,null,null,,,critical,t,c,d,164,240,240,164,158.0083,227.1683,spektor,0.09,h,164,240,240,164,158.0083,227.1683,39360,39360,35894.4834,td,null,null,null,null,null,null,"[1,3]"
,canvas-keyboard-response,48,157951,0.0-6.0-0.7,65,,,,,pre trial waiting period,null,null,,,critical,c,t,d,240,164,164,240,158.0083,227.1683,trueblood,0.09,h,164,240,240,164,158.0083,227.1683,39360,39360,35894.4834,tc,null,null,null,null,null,null,"[2,1]"
,canvas-keyboard-response,49,158113,0.0-6.0-1.7,65,,,,,clear_screen,null,null,,,critical,c,t,d,240,164,164,240,158.0083,227.1683,trueblood,0.09,h,164,240,240,164,158.0083,227.1683,39360,39360,35894.4834,tc,null,null,null,null,null,null,"[2,1]"
,canvas-keyboard-response,50,159453,0.0-6.0-2.7,65,,,,,rectangles,null,null,,,critical,c,t,d,240,164,164,240,158.0083,227.1683,trueblood,0.09,h,164,240,240,164,158.0083,227.1683,39360,39360,35894.4834,tc,null,null,null,null,null,null,"[2,1]"
,canvas-keyboard-response,51,159611,0.0-6.0-3.7,65,,,,,clear_screen,null,null,,,critical,c,t,d,240,164,164,240,158.0083,227.1683,trueblood,0.09,h,164,240,240,164,158.0083,227.1683,39360,39360,35894.4834,tc,null,null,null,null,null,null,"[2,1]"
,canvas-keyboard-response,52,160652,0.0-6.0-4.7,65,,,,,make choice,1031,1,,,critical,c,t,d,240,164,164,240,158.0083,227.1683,trueblood,0.09,h,164,240,240,164,158.0083,227.1683,39360,39360,35894.4834,tc,null,null,null,null,null,null,"[2,1]"
,canvas-keyboard-response,53,160809,0.0-6.0-5.7,65,,,,,clear_screen,null,null,,,critical,c,t,d,240,164,164,240,158.0083,227.1683,trueblood,0.09,h,164,240,240,164,158.0083,227.1683,39360,39360,35894.4834,tc,null,null,null,null,null,null,"[2,1]"
,canvas-keyboard-response,54,161010,0.0-6.0-0.8,65,,,,,pre trial waiting period,null,null,,,catch,sh,l,sw,183,155,220,261,209,166,spektor,null,null,null,null,null,null,null,null,null,null,null,,180,200,260,200,36000,52000,"[1,2]"
,canvas-keyboard-response,55,161174,0.0-6.0-1.8,65,,,,,clear_screen,null,null,,,catch,sh,l,sw,183,155,220,261,209,166,spektor,null,null,null,null,null,null,null,null,null,null,null,,180,200,260,200,36000,52000,"[1,2]"
,canvas-keyboard-response,56,162508,0.0-6.0-2.8,65,,,,,rectangles,null,null,,,catch,sh,l,sw,183,155,220,261,209,166,spektor,null,null,null,null,null,null,null,null,null,null,null,,180,200,260,200,36000,52000,"[1,2]"
,canvas-keyboard-response,57,162667,0.0-6.0-3.8,65,,,,,clear_screen,null,null,,,catch,sh,l,sw,183,155,220,261,209,166,spektor,null,null,null,null,null,null,null,null,null,null,null,,180,200,260,200,36000,52000,"[1,2]"
,canvas-keyboard-response,58,163901,0.0-6.0-4.8,65,,,,,make choice,1224,2,,,catch,sh,l,sw,183,155,220,261,209,166,spektor,null,null,null,null,null,null,null,null,null,null,null,,180,200,260,200,36000,52000,"[1,2]"
,canvas-keyboard-response,59,164058,0.0-6.0-5.8,65,,,,,clear_screen,null,null,,,catch,sh,l,sw,183,155,220,261,209,166,spektor,null,null,null,null,null,null,null,null,null,null,null,,180,200,260,200,36000,52000,"[1,2]"
,canvas-keyboard-response,60,164259,0.0-6.0-0.9,65,,,,,pre trial waiting period,null,null,,,critical,c,d,t,240,164,164,240,164,240,trueblood,0,h,164,240,240,164,164,240,39360,39360,39360,dc,null,null,null,null,null,null,"[2,1]"
,canvas-keyboard-response,61,164421,0.0-6.0-1.9,65,,,,,clear_screen,null,null,,,critical,c,d,t,240,164,164,240,164,240,trueblood,0,h,164,240,240,164,164,240,39360,39360,39360,dc,null,null,null,null,null,null,"[2,1]"
,canvas-keyboard-response,62,165759,0.0-6.0-2.9,65,,,,,rectangles,null,null,,,critical,c,d,t,240,164,164,240,164,240,trueblood,0,h,164,240,240,164,164,240,39360,39360,39360,dc,null,null,null,null,null,null,"[2,1]"
,canvas-keyboard-response,63,165920,0.0-6.0-3.9,65,,,,,clear_screen,null,null,,,critical,c,d,t,240,164,164,240,164,240,trueblood,0,h,164,240,240,164,164,240,39360,39360,39360,dc,null,null,null,null,null,null,"[2,1]"
,canvas-keyboard-response,64,167028,0.0-6.0-4.9,65,,,,,make choice,1095,1,,,critical,c,d,t,240,164,164,240,164,240,trueblood,0,h,164,240,240,164,164,240,39360,39360,39360,dc,null,null,null,null,null,null,"[2,1]"
,canvas-keyboard-response,65,167187,0.0-6.0-5.9,65,,,,,clear_screen,null,null,,,critical,c,d,t,240,164,164,240,164,240,trueblood,0,h,164,240,240,164,164,240,39360,39360,39360,dc,null,null,null,null,null,null,"[2,1]"
,canvas-keyboard-response,66,167389,0.0-6.0-0.10,65,,,,,pre trial waiting period,null,null,,,catch,sw,l,sh,180,200,230,221,184,170,trueblood,null,null,null,null,null,null,null,null,null,null,null,,180,200,260,200,36000,52000,"[1,2]"
,canvas-keyboard-response,67,167550,0.0-6.0-1.10,65,,,,,clear_screen,null,null,,,catch,sw,l,sh,180,200,230,221,184,170,trueblood,null,null,null,null,null,null,null,null,null,null,null,,180,200,260,200,36000,52000,"[1,2]"
,canvas-keyboard-response,68,168886,0.0-6.0-2.10,65,,,,,rectangles,null,null,,,catch,sw,l,sh,180,200,230,221,184,170,trueblood,null,null,null,null,null,null,null,null,null,null,null,,180,200,260,200,36000,52000,"[1,2]"
,canvas-keyboard-response,69,169049,0.0-6.0-3.10,65,,,,,clear_screen,null,null,,,catch,sw,l,sh,180,200,230,221,184,170,trueblood,null,null,null,null,null,null,null,null,null,null,null,,180,200,260,200,36000,52000,"[1,2]"
,canvas-keyboard-response,70,170587,0.0-6.0-4.10,65,,,,,make choice,1525,2,,,catch,sw,l,sh,180,200,230,221,184,170,trueblood,null,null,null,null,null,null,null,null,null,null,null,,180,200,260,200,36000,52000,"[1,2]"
,canvas-keyboard-response,71,170743,0.0-6.0-5.10,65,,,,,clear_screen,null,null,,,catch,sw,l,sh,180,200,230,221,184,170,trueblood,null,null,null,null,null,null,null,null,null,null,null,,180,200,260,200,36000,52000,"[1,2]"
,canvas-keyboard-response,72,170944,0.0-6.0-0.11,65,,,,,pre trial waiting period,null,null,,,catch,l,sw,sh,287,195,207,171,230,158,spektor,null,null,null,null,null,null,null,null,null,null,null,,180,200,260,200,36000,52000,"[1,3]"
,canvas-keyboard-response,73,171106,0.0-6.0-1.11,65,,,,,clear_screen,null,null,,,catch,l,sw,sh,287,195,207,171,230,158,spektor,null,null,null,null,null,null,null,null,null,null,null,,180,200,260,200,36000,52000,"[1,3]"
,canvas-keyboard-response,74,172441,0.0-6.0-2.11,65,,,,,rectangles,null,null,,,catch,l,sw,sh,287,195,207,171,230,158,spektor,null,null,null,null,null,null,null,null,null,null,null,,180,200,260,200,36000,52000,"[1,3]"
,canvas-keyboard-response,75,172600,0.0-6.0-3.11,65,,,,,clear_screen,null,null,,,catch,l,sw,sh,287,195,207,171,230,158,spektor,null,null,null,null,null,null,null,null,null,null,null,,180,200,260,200,36000,52000,"[1,3]"
,canvas-keyboard-response,76,173627,0.0-6.0-4.11,65,,,,,make choice,1021,1,,,catch,l,sw,sh,287,195,207,171,230,158,spektor,null,null,null,null,null,null,null,null,null,null,null,,180,200,260,200,36000,52000,"[1,3]"
,canvas-keyboard-response,77,173784,0.0-6.0-5.11,65,,,,,clear_screen,null,null,,,catch,l,sw,sh,287,195,207,171,230,158,spektor,null,null,null,null,null,null,null,null,null,null,null,,180,200,260,200,36000,52000,"[1,3]"
,canvas-keyboard-response,78,173985,0.0-6.0-0.12,65,,,,,pre trial waiting period,null,null,,,catch,sh,sw,l,207,216,167,210,285,201,trueblood,null,null,null,null,null,null,null,null,null,null,null,,180,200,260,200,36000,52000,"[2,3]"
,canvas-keyboard-response,79,174143,0.0-6.0-1.12,65,,,,,clear_screen,null,null,,,catch,sh,sw,l,207,216,167,210,285,201,trueblood,null,null,null,null,null,null,null,null,null,null,null,,180,200,260,200,36000,52000,"[2,3]"
,canvas-keyboard-response,80,175481,0.0-6.0-2.12,65,,,,,rectangles,null,null,,,catch,sh,sw,l,207,216,167,210,285,201,trueblood,null,null,null,null,null,null,null,null,null,null,null,,180,200,260,200,36000,52000,"[2,3]"
,canvas-keyboard-response,81,175643,0.0-6.0-3.12,65,,,,,clear_screen,null,null,,,catch,sh,sw,l,207,216,167,210,285,201,trueblood,null,null,null,null,null,null,null,null,null,null,null,,180,200,260,200,36000,52000,"[2,3]"
,canvas-keyboard-response,82,177004,0.0-6.0-4.12,65,,,,,make choice,1350,3,,,catch,sh,sw,l,207,216,167,210,285,201,trueblood,null,null,null,null,null,null,null,null,null,null,null,,180,200,260,200,36000,52000,"[2,3]"
,canvas-keyboard-response,83,177167,0.0-6.0-5.12,65,,,,,clear_screen,null,null,,,catch,sh,sw,l,207,216,167,210,285,201,trueblood,null,null,null,null,null,null,null,null,null,null,null,,180,200,260,200,36000,52000,"[2,3]"
,canvas-keyboard-response,84,177370,0.0-6.0-0.13,65,,,,,pre trial waiting period,null,null,,,catch,sw,sh,l,180,200,160,162,228,295,spektor,null,null,null,null,null,null,null,null,null,null,null,,180,200,260,200,36000,52000,"[2,3]"
,canvas-keyboard-response,85,177530,0.0-6.0-1.13,65,,,,,clear_screen,null,null,,,catch,sw,sh,l,180,200,160,162,228,295,spektor,null,null,null,null,null,null,null,null,null,null,null,,180,200,260,200,36000,52000,"[2,3]"
,canvas-keyboard-response,86,178868,0.0-6.0-2.13,65,,,,,rectangles,null,null,,,catch,sw,sh,l,180,200,160,162,228,295,spektor,null,null,null,null,null,null,null,null,null,null,null,,180,200,260,200,36000,52000,"[2,3]"
,canvas-keyboard-response,87,179027,0.0-6.0-3.13,65,,,,,clear_screen,null,null,,,catch,sw,sh,l,180,200,160,162,228,295,spektor,null,null,null,null,null,null,null,null,null,null,null,,180,200,260,200,36000,52000,"[2,3]"
,canvas-keyboard-response,88,180013,0.0-6.0-4.13,65,,,,,make choice,973,3,,,catch,sw,sh,l,180,200,160,162,228,295,spektor,null,null,null,null,null,null,null,null,null,null,null,,180,200,260,200,36000,52000,"[2,3]"
,canvas-keyboard-response,89,180172,0.0-6.0-5.13,65,,,,,clear_screen,null,null,,,catch,sw,sh,l,180,200,160,162,228,295,spektor,null,null,null,null,null,null,null,null,null,null,null,,180,200,260,200,36000,52000,"[2,3]"
,canvas-keyboard-response,90,180374,0.0-6.0-0.14,65,,,,,pre trial waiting period,null,null,,,critical,c,d,t,164,240,220.0396,154.6796,240,164,trueblood,0.14,w,240,164,164,240,220.0396,154.6796,39360,39360,34035.6388,td,null,null,null,null,null,null,"[3,2]"
,canvas-keyboard-response,91,180534,0.0-6.0-1.14,65,,,,,clear_screen,null,null,,,critical,c,d,t,164,240,220.0396,154.6796,240,164,trueblood,0.14,w,240,164,164,240,220.0396,154.6796,39360,39360,34035.6388,td,null,null,null,null,null,null,"[3,2]"
,canvas-keyboard-response,92,181869,0.0-6.0-2.14,65,,,,,rectangles,null,null,,,critical,c,d,t,164,240,220.0396,154.6796,240,164,trueblood,0.14,w,240,164,164,240,220.0396,154.6796,39360,39360,34035.6388,td,null,null,null,null,null,null,"[3,2]"
,canvas-keyboard-response,93,182028,0.0-6.0-3.14,65,,,,,clear_screen,null,null,,,critical,c,d,t,164,240,220.0396,154.6796,240,164,trueblood,0.14,w,240,164,164,240,220.0396,154.6796,39360,39360,34035.6388,td,null,null,null,null,null,null,"[3,2]"
,canvas-keyboard-response,94,183403,0.0-6.0-4.14,65,,,,,make choice,1366,3,,,critical,c,d,t,164,240,220.0396,154.6796,240,164,trueblood,0.14,w,240,164,164,240,220.0396,154.6796,39360,39360,34035.6388,td,null,null,null,null,null,null,"[3,2]"
,canvas-keyboard-response,95,183564,0.0-6.0-5.14,65,,,,,clear_screen,null,null,,,critical,c,d,t,164,240,220.0396,154.6796,240,164,trueblood,0.14,w,240,164,164,240,220.0396,154.6796,39360,39360,34035.6388,td,null,null,null,null,null,null,"[3,2]"
,canvas-keyboard-response,96,183765,0.0-6.0-0.15,65,,,,,pre trial waiting period,null,null,,,catch,l,sw,sh,237,169,157,212,168,164,spektor,null,null,null,null,null,null,null,null,null,null,null,,180,200,260,200,36000,52000,"[1,3]"
,canvas-keyboard-response,97,183929,0.0-6.0-1.15,65,,,,,clear_screen,null,null,,,catch,l,sw,sh,237,169,157,212,168,164,spektor,null,null,null,null,null,null,null,null,null,null,null,,180,200,260,200,36000,52000,"[1,3]"
,canvas-keyboard-response,98,185265,0.0-6.0-2.15,65,,,,,rectangles,null,null,,,catch,l,sw,sh,237,169,157,212,168,164,spektor,null,null,null,null,null,null,null,null,null,null,null,,180,200,260,200,36000,52000,"[1,3]"
,canvas-keyboard-response,99,185424,0.0-6.0-3.15,65,,,,,clear_screen,null,null,,,catch,l,sw,sh,237,169,157,212,168,164,spektor,null,null,null,null,null,null,null,null,null,null,null,,180,200,260,200,36000,52000,"[1,3]"
,canvas-keyboard-response,100,186235,0.0-6.0-4.15,65,,,,,make choice,803,1,,,catch,l,sw,sh,237,169,157,212,168,164,spektor,null,null,null,null,null,null,null,null,null,null,null,,180,200,260,200,36000,52000,"[1,3]"
,canvas-keyboard-response,101,186393,0.0-6.0-5.15,65,,,,,clear_screen,null,null,,,catch,l,sw,sh,237,169,157,212,168,164,spektor,null,null,null,null,null,null,null,null,null,null,null,,180,200,260,200,36000,52000,"[1,3]"
,canvas-keyboard-response,102,186595,0.0-6.0-0.16,65,,,,,pre trial waiting period,null,null,,,critical,t,d,c,240,164,227.1683,158.0083,164,240,spektor,0.09,w,240,164,164,240,227.1683,158.0083,39360,39360,35894.4834,tc,null,null,null,null,null,null,"[1,3]"
,canvas-keyboard-response,103,186757,0.0-6.0-1.16,65,,,,,clear_screen,null,null,,,critical,t,d,c,240,164,227.1683,158.0083,164,240,spektor,0.09,w,240,164,164,240,227.1683,158.0083,39360,39360,35894.4834,tc,null,null,null,null,null,null,"[1,3]"
,canvas-keyboard-response,104,188096,0.0-6.0-2.16,65,,,,,rectangles,null,null,,,critical,t,d,c,240,164,227.1683,158.0083,164,240,spektor,0.09,w,240,164,164,240,227.1683,158.0083,39360,39360,35894.4834,tc,null,null,null,null,null,null,"[1,3]"
,canvas-keyboard-response,105,188256,0.0-6.0-3.16,65,,,,,clear_screen,null,null,,,critical,t,d,c,240,164,227.1683,158.0083,164,240,spektor,0.09,w,240,164,164,240,227.1683,158.0083,39360,39360,35894.4834,tc,null,null,null,null,null,null,"[1,3]"
,canvas-keyboard-response,106,189116,0.0-6.0-4.16,65,,,,,make choice,849,3,,,critical,t,d,c,240,164,227.1683,158.0083,164,240,spektor,0.09,w,240,164,164,240,227.1683,158.0083,39360,39360,35894.4834,tc,null,null,null,null,null,null,"[1,3]"
,canvas-keyboard-response,107,189275,0.0-6.0-5.16,65,,,,,clear_screen,null,null,,,critical,t,d,c,240,164,227.1683,158.0083,164,240,spektor,0.09,w,240,164,164,240,227.1683,158.0083,39360,39360,35894.4834,tc,null,null,null,null,null,null,"[1,3]"
,canvas-keyboard-response,108,189476,0.0-6.0-0.17,65,,,,,pre trial waiting period,null,null,,,catch,sh,l,sw,177,150,242,205,188,162,spektor,null,null,null,null,null,null,null,null,null,null,null,,180,200,260,200,36000,52000,"[2,3]"
,canvas-keyboard-response,109,189635,0.0-6.0-1.17,65,,,,,clear_screen,null,null,,,catch,sh,l,sw,177,150,242,205,188,162,spektor,null,null,null,null,null,null,null,null,null,null,null,,180,200,260,200,36000,52000,"[2,3]"
,canvas-keyboard-response,110,190970,0.0-6.0-2.17,65,,,,,rectangles,null,null,,,catch,sh,l,sw,177,150,242,205,188,162,spektor,null,null,null,null,null,null,null,null,null,null,null,,180,200,260,200,36000,52000,"[2,3]"
,canvas-keyboard-response,111,191130,0.0-6.0-3.17,65,,,,,clear_screen,null,null,,,catch,sh,l,sw,177,150,242,205,188,162,spektor,null,null,null,null,null,null,null,null,null,null,null,,180,200,260,200,36000,52000,"[2,3]"
,canvas-keyboard-response,112,192324,0.0-6.0-4.17,65,,,,,make choice,1182,2,,,catch,sh,l,sw,177,150,242,205,188,162,spektor,null,null,null,null,null,null,null,null,null,null,null,,180,200,260,200,36000,52000,"[2,3]"
,canvas-keyboard-response,113,192482,0.0-6.0-5.17,65,,,,,clear_screen,null,null,,,catch,sh,l,sw,177,150,242,205,188,162,spektor,null,null,null,null,null,null,null,null,null,null,null,,180,200,260,200,36000,52000,"[2,3]"
,canvas-keyboard-response,114,192683,0.0-6.0-0.18,65,,,,,pre trial waiting period,null,null,,,critical,d,c,t,164,240,240,164,164,240,spektor,0,h,164,240,240,164,164,240,39360,39360,39360,td,null,null,null,null,null,null,"[3,1]"
,canvas-keyboard-response,115,192841,0.0-6.0-1.18,65,,,,,clear_screen,null,null,,,critical,d,c,t,164,240,240,164,164,240,spektor,0,h,164,240,240,164,164,240,39360,39360,39360,td,null,null,null,null,null,null,"[3,1]"
,canvas-keyboard-response,116,194178,0.0-6.0-2.18,65,,,,,rectangles,null,null,,,critical,d,c,t,164,240,240,164,164,240,spektor,0,h,164,240,240,164,164,240,39360,39360,39360,td,null,null,null,null,null,null,"[3,1]"
,canvas-keyboard-response,117,194335,0.0-6.0-3.18,65,,,,,clear_screen,null,null,,,critical,d,c,t,164,240,240,164,164,240,spektor,0,h,164,240,240,164,164,240,39360,39360,39360,td,null,null,null,null,null,null,"[3,1]"
,canvas-keyboard-response,118,195203,0.0-6.0-4.18,65,,,,,make choice,859,3,,,critical,d,c,t,164,240,240,164,164,240,spektor,0,h,164,240,240,164,164,240,39360,39360,39360,td,null,null,null,null,null,null,"[3,1]"
,canvas-keyboard-response,119,195361,0.0-6.0-5.18,65,,,,,clear_screen,null,null,,,critical,d,c,t,164,240,240,164,164,240,spektor,0,h,164,240,240,164,164,240,39360,39360,39360,td,null,null,null,null,null,null,"[3,1]"
,canvas-keyboard-response,120,195563,0.0-6.0-0.19,65,,,,,pre trial waiting period,null,null,,,catch,sh,sw,l,173,188,176,214,257,231,spektor,null,null,null,null,null,null,null,null,null,null,null,,180,200,260,200,36000,52000,"[2,3]"
,canvas-keyboard-response,121,195721,0.0-6.0-1.19,65,,,,,clear_screen,null,null,,,catch,sh,sw,l,173,188,176,214,257,231,spektor,null,null,null,null,null,null,null,null,null,null,null,,180,200,260,200,36000,52000,"[2,3]"
,canvas-keyboard-response,122,197055,0.0-6.0-2.19,65,,,,,rectangles,null,null,,,catch,sh,sw,l,173,188,176,214,257,231,spektor,null,null,null,null,null,null,null,null,null,null,null,,180,200,260,200,36000,52000,"[2,3]"
,canvas-keyboard-response,123,197215,0.0-6.0-3.19,65,,,,,clear_screen,null,null,,,catch,sh,sw,l,173,188,176,214,257,231,spektor,null,null,null,null,null,null,null,null,null,null,null,,180,200,260,200,36000,52000,"[2,3]"
,canvas-keyboard-response,124,198397,0.0-6.0-4.19,65,,,,,make choice,1173,3,,,catch,sh,sw,l,173,188,176,214,257,231,spektor,null,null,null,null,null,null,null,null,null,null,null,,180,200,260,200,36000,52000,"[2,3]"
,canvas-keyboard-response,125,198554,0.0-6.0-5.19,65,,,,,clear_screen,null,null,,,catch,sh,sw,l,173,188,176,214,257,231,spektor,null,null,null,null,null,null,null,null,null,null,null,,180,200,260,200,36000,52000,"[2,3]"
,canvas-keyboard-response,126,198755,0.0-6.0-0.20,65,,,,,pre trial waiting period,null,null,,,critical,c,t,d,240,164,164,240,160.6713,232.8713,spektor,0.05,h,164,240,240,164,160.6713,232.8713,39360,39360,37415.7294,tc,null,null,null,null,null,null,"[2,1]"
,canvas-keyboard-response,127,198917,0.0-6.0-1.20,65,,,,,clear_screen,null,null,,,critical,c,t,d,240,164,164,240,160.6713,232.8713,spektor,0.05,h,164,240,240,164,160.6713,232.8713,39360,39360,37415.7294,tc,null,null,null,null,null,null,"[2,1]"
,canvas-keyboard-response,128,200251,0.0-6.0-2.20,65,,,,,rectangles,null,null,,,critical,c,t,d,240,164,164,240,160.6713,232.8713,spektor,0.05,h,164,240,240,164,160.6713,232.8713,39360,39360,37415.7294,tc,null,null,null,null,null,null,"[2,1]"
,canvas-keyboard-response,129,200411,0.0-6.0-3.20,65,,,,,clear_screen,null,null,,,critical,c,t,d,240,164,164,240,160.6713,232.8713,spektor,0.05,h,164,240,240,164,160.6713,232.8713,39360,39360,37415.7294,tc,null,null,null,null,null,null,"[2,1]"
,canvas-keyboard-response,130,201396,0.0-6.0-4.20,65,,,,,make choice,978,1,,,critical,c,t,d,240,164,164,240,160.6713,232.8713,spektor,0.05,h,164,240,240,164,160.6713,232.8713,39360,39360,37415.7294,tc,null,null,null,null,null,null,"[2,1]"
,canvas-keyboard-response,131,201553,0.0-6.0-5.20,65,,,,,clear_screen,null,null,,,critical,c,t,d,240,164,164,240,160.6713,232.8713,spektor,0.05,h,164,240,240,164,160.6713,232.8713,39360,39360,37415.7294,tc,null,null,null,null,null,null,"[2,1]"
,canvas-keyboard-response,132,201754,0.0-6.0-0.21,65,,,,,pre trial waiting period,null,null,,,critical,d,c,t,158.0083,227.1683,240,164,164,240,spektor,0.09,h,164,240,240,164,158.0083,227.1683,39360,39360,35894.4834,dc,null,null,null,null,null,null,"[1,2]"
,canvas-keyboard-response,133,201913,0.0-6.0-1.21,65,,,,,clear_screen,null,null,,,critical,d,c,t,158.0083,227.1683,240,164,164,240,spektor,0.09,h,164,240,240,164,158.0083,227.1683,39360,39360,35894.4834,dc,null,null,null,null,null,null,"[1,2]"
,canvas-keyboard-response,134,203249,0.0-6.0-2.21,65,,,,,rectangles,null,null,,,critical,d,c,t,158.0083,227.1683,240,164,164,240,spektor,0.09,h,164,240,240,164,158.0083,227.1683,39360,39360,35894.4834,dc,null,null,null,null,null,null,"[1,2]"
,canvas-keyboard-response,135,203410,0.0-6.0-3.21,65,,,,,clear_screen,null,null,,,critical,d,c,t,158.0083,227.1683,240,164,164,240,spektor,0.09,h,164,240,240,164,158.0083,227.1683,39360,39360,35894.4834,dc,null,null,null,null,null,null,"[1,2]"
,canvas-keyboard-response,136,205107,0.0-6.0-4.21,65,,,,,make choice,1690,1,,,critical,d,c,t,158.0083,227.1683,240,164,164,240,spektor,0.09,h,164,240,240,164,158.0083,227.1683,39360,39360,35894.4834,dc,null,null,null,null,null,null,"[1,2]"
,canvas-keyboard-response,137,205269,0.0-6.0-5.21,65,,,,,clear_screen,null,null,,,critical,d,c,t,158.0083,227.1683,240,164,164,240,spektor,0.09,h,164,240,240,164,158.0083,227.1683,39360,39360,35894.4834,dc,null,null,null,null,null,null,"[1,2]"
,canvas-keyboard-response,138,205470,0.0-6.0-0.22,65,,,,,pre trial waiting period,null,null,,,critical,d,t,c,154.6796,220.0396,164,240,240,164,spektor,0.14,h,164,240,240,164,154.6796,220.0396,39360,39360,34035.6388,dc,null,null,null,null,null,null,"[1,3]"
,canvas-keyboard-response,139,205630,0.0-6.0-1.22,65,,,,,clear_screen,null,null,,,critical,d,t,c,154.6796,220.0396,164,240,240,164,spektor,0.14,h,164,240,240,164,154.6796,220.0396,39360,39360,34035.6388,dc,null,null,null,null,null,null,"[1,3]"
,canvas-keyboard-response,140,206970,0.0-6.0-2.22,65,,,,,rectangles,null,null,,,critical,d,t,c,154.6796,220.0396,164,240,240,164,spektor,0.14,h,164,240,240,164,154.6796,220.0396,39360,39360,34035.6388,dc,null,null,null,null,null,null,"[1,3]"
,canvas-keyboard-response,141,207130,0.0-6.0-3.22,65,,,,,clear_screen,null,null,,,critical,d,t,c,154.6796,220.0396,164,240,240,164,spektor,0.14,h,164,240,240,164,154.6796,220.0396,39360,39360,34035.6388,dc,null,null,null,null,null,null,"[1,3]"
,canvas-keyboard-response,142,208004,0.0-6.0-4.22,65,,,,,make choice,861,3,,,critical,d,t,c,154.6796,220.0396,164,240,240,164,spektor,0.14,h,164,240,240,164,154.6796,220.0396,39360,39360,34035.6388,dc,null,null,null,null,null,null,"[1,3]"
,canvas-keyboard-response,143,208166,0.0-6.0-5.22,65,,,,,clear_screen,null,null,,,critical,d,t,c,154.6796,220.0396,164,240,240,164,spektor,0.14,h,164,240,240,164,154.6796,220.0396,39360,39360,34035.6388,dc,null,null,null,null,null,null,"[1,3]"
,canvas-keyboard-response,144,208370,0.0-6.0-0.23,65,,,,,pre trial waiting period,null,null,,,critical,t,d,c,164,240,158.0083,227.1683,240,164,spektor,0.09,h,164,240,240,164,158.0083,227.1683,39360,39360,35894.4834,tc,null,null,null,null,null,null,"[1,3]"
,canvas-keyboard-response,145,208533,0.0-6.0-1.23,65,,,,,clear_screen,null,null,,,critical,t,d,c,164,240,158.0083,227.1683,240,164,spektor,0.09,h,164,240,240,164,158.0083,227.1683,39360,39360,35894.4834,tc,null,null,null,null,null,null,"[1,3]"
,canvas-keyboard-response,146,209871,0.0-6.0-2.23,65,,,,,rectangles,null,null,,,critical,t,d,c,164,240,158.0083,227.1683,240,164,spektor,0.09,h,164,240,240,164,158.0083,227.1683,39360,39360,35894.4834,tc,null,null,null,null,null,null,"[1,3]"
,canvas-keyboard-response,147,210032,0.0-6.0-3.23,65,,,,,clear_screen,null,null,,,critical,t,d,c,164,240,158.0083,227.1683,240,164,spektor,0.09,h,164,240,240,164,158.0083,227.1683,39360,39360,35894.4834,tc,null,null,null,null,null,null,"[1,3]"
,canvas-keyboard-response,148,210988,0.0-6.0-4.23,65,,,,,make choice,946,1,,,critical,t,d,c,164,240,158.0083,227.1683,240,164,spektor,0.09,h,164,240,240,164,158.0083,227.1683,39360,39360,35894.4834,tc,null,null,null,null,null,null,"[1,3]"
,canvas-keyboard-response,149,211146,0.0-6.0-5.23,65,,,,,clear_screen,null,null,,,critical,t,d,c,164,240,158.0083,227.1683,240,164,spektor,0.09,h,164,240,240,164,158.0083,227.1683,39360,39360,35894.4834,tc,null,null,null,null,null,null,"[1,3]"
,canvas-keyboard-response,150,211349,0.0-6.0-0.24,65,,,,,pre trial waiting period,null,null,,,critical,c,t,d,164,240,240,164,240,164,trueblood,0,w,240,164,164,240,240,164,39360,39360,39360,tc,null,null,null,null,null,null,"[2,1]"
,canvas-keyboard-response,151,211509,0.0-6.0-1.24,65,,,,,clear_screen,null,null,,,critical,c,t,d,164,240,240,164,240,164,trueblood,0,w,240,164,164,240,240,164,39360,39360,39360,tc,null,null,null,null,null,null,"[2,1]"
,canvas-keyboard-response,152,212848,0.0-6.0-2.24,65,,,,,rectangles,null,null,,,critical,c,t,d,164,240,240,164,240,164,trueblood,0,w,240,164,164,240,240,164,39360,39360,39360,tc,null,null,null,null,null,null,"[2,1]"
,canvas-keyboard-response,153,213008,0.0-6.0-3.24,65,,,,,clear_screen,null,null,,,critical,c,t,d,164,240,240,164,240,164,trueblood,0,w,240,164,164,240,240,164,39360,39360,39360,tc,null,null,null,null,null,null,"[2,1]"
,canvas-keyboard-response,154,214020,0.0-6.0-4.24,65,,,,,make choice,1000,2,,,critical,c,t,d,164,240,240,164,240,164,trueblood,0,w,240,164,164,240,240,164,39360,39360,39360,tc,null,null,null,null,null,null,"[2,1]"
,canvas-keyboard-response,155,214179,0.0-6.0-5.24,65,,,,,clear_screen,null,null,,,critical,c,t,d,164,240,240,164,240,164,trueblood,0,w,240,164,164,240,240,164,39360,39360,39360,tc,null,null,null,null,null,null,"[2,1]"
,canvas-keyboard-response,156,214381,0.0-6.0-0.25,65,,,,,pre trial waiting period,null,null,,,critical,c,t,d,164,240,240,164,240,164,spektor,0,w,240,164,164,240,240,164,39360,39360,39360,td,null,null,null,null,null,null,"[2,3]"
,canvas-keyboard-response,157,214541,0.0-6.0-1.25,65,,,,,clear_screen,null,null,,,critical,c,t,d,164,240,240,164,240,164,spektor,0,w,240,164,164,240,240,164,39360,39360,39360,td,null,null,null,null,null,null,"[2,3]"
,canvas-keyboard-response,158,215877,0.0-6.0-2.25,65,,,,,rectangles,null,null,,,critical,c,t,d,164,240,240,164,240,164,spektor,0,w,240,164,164,240,240,164,39360,39360,39360,td,null,null,null,null,null,null,"[2,3]"
,canvas-keyboard-response,159,216036,0.0-6.0-3.25,65,,,,,clear_screen,null,null,,,critical,c,t,d,164,240,240,164,240,164,spektor,0,w,240,164,164,240,240,164,39360,39360,39360,td,null,null,null,null,null,null,"[2,3]"
,canvas-keyboard-response,160,217853,0.0-6.0-4.25,65,,,,,make choice,1807,2,,,critical,c,t,d,164,240,240,164,240,164,spektor,0,w,240,164,164,240,240,164,39360,39360,39360,td,null,null,null,null,null,null,"[2,3]"
,canvas-keyboard-response,161,218011,0.0-6.0-5.25,65,,,,,clear_screen,null,null,,,critical,c,t,d,164,240,240,164,240,164,spektor,0,w,240,164,164,240,240,164,39360,39360,39360,td,null,null,null,null,null,null,"[2,3]"
,canvas-keyboard-response,162,218212,0.0-6.0-0.26,65,,,,,pre trial waiting period,null,null,,,critical,d,t,c,160.6713,232.8713,164,240,240,164,spektor,0.05,h,164,240,240,164,160.6713,232.8713,39360,39360,37415.7294,dc,null,null,null,null,null,null,"[1,3]"
,canvas-keyboard-response,163,218372,0.0-6.0-1.26,65,,,,,clear_screen,null,null,,,critical,d,t,c,160.6713,232.8713,164,240,240,164,spektor,0.05,h,164,240,240,164,160.6713,232.8713,39360,39360,37415.7294,dc,null,null,null,null,null,null,"[1,3]"
,canvas-keyboard-response,164,219708,0.0-6.0-2.26,65,,,,,rectangles,null,null,,,critical,d,t,c,160.6713,232.8713,164,240,240,164,spektor,0.05,h,164,240,240,164,160.6713,232.8713,39360,39360,37415.7294,dc,null,null,null,null,null,null,"[1,3]"
,canvas-keyboard-response,165,219867,0.0-6.0-3.26,65,,,,,clear_screen,null,null,,,critical,d,t,c,160.6713,232.8713,164,240,240,164,spektor,0.05,h,164,240,240,164,160.6713,232.8713,39360,39360,37415.7294,dc,null,null,null,null,null,null,"[1,3]"
,canvas-keyboard-response,166,220819,0.0-6.0-4.26,65,,,,,make choice,941,1,,,critical,d,t,c,160.6713,232.8713,164,240,240,164,spektor,0.05,h,164,240,240,164,160.6713,232.8713,39360,39360,37415.7294,dc,null,null,null,null,null,null,"[1,3]"
,canvas-keyboard-response,167,220978,0.0-6.0-5.26,65,,,,,clear_screen,null,null,,,critical,d,t,c,160.6713,232.8713,164,240,240,164,spektor,0.05,h,164,240,240,164,160.6713,232.8713,39360,39360,37415.7294,dc,null,null,null,null,null,null,"[1,3]"
,canvas-keyboard-response,168,221181,0.0-6.0-0.27,65,,,,,pre trial waiting period,null,null,,,catch,sw,l,sh,180,200,181,272,222,175,trueblood,null,null,null,null,null,null,null,null,null,null,null,,180,200,260,200,36000,52000,"[1,2]"
,canvas-keyboard-response,169,221342,0.0-6.0-1.27,65,,,,,clear_screen,null,null,,,catch,sw,l,sh,180,200,181,272,222,175,trueblood,null,null,null,null,null,null,null,null,null,null,null,,180,200,260,200,36000,52000,"[1,2]"
,canvas-keyboard-response,170,222678,0.0-6.0-2.27,65,,,,,rectangles,null,null,,,catch,sw,l,sh,180,200,181,272,222,175,trueblood,null,null,null,null,null,null,null,null,null,null,null,,180,200,260,200,36000,52000,"[1,2]"
,canvas-keyboard-response,171,222840,0.0-6.0-3.27,65,,,,,clear_screen,null,null,,,catch,sw,l,sh,180,200,181,272,222,175,trueblood,null,null,null,null,null,null,null,null,null,null,null,,180,200,260,200,36000,52000,"[1,2]"
,canvas-keyboard-response,172,223900,0.0-6.0-4.27,65,,,,,make choice,1051,2,,,catch,sw,l,sh,180,200,181,272,222,175,trueblood,null,null,null,null,null,null,null,null,null,null,null,,180,200,260,200,36000,52000,"[1,2]"
,canvas-keyboard-response,173,224061,0.0-6.0-5.27,65,,,,,clear_screen,null,null,,,catch,sw,l,sh,180,200,181,272,222,175,trueblood,null,null,null,null,null,null,null,null,null,null,null,,180,200,260,200,36000,52000,"[1,2]"
,canvas-keyboard-response,174,224262,0.0-6.0-0.28,65,,,,,pre trial waiting period,null,null,,,critical,d,t,c,237.1485,162.6685,240,164,164,240,spektor,0.02,w,240,164,164,240,237.1485,162.6685,39360,39360,38576.5967,td,null,null,null,null,null,null,"[2,1]"
,canvas-keyboard-response,175,224426,0.0-6.0-1.28,65,,,,,clear_screen,null,null,,,critical,d,t,c,237.1485,162.6685,240,164,164,240,spektor,0.02,w,240,164,164,240,237.1485,162.6685,39360,39360,38576.5967,td,null,null,null,null,null,null,"[2,1]"
,canvas-keyboard-response,176,225766,0.0-6.0-2.28,65,,,,,rectangles,null,null,,,critical,d,t,c,237.1485,162.6685,240,164,164,240,spektor,0.02,w,240,164,164,240,237.1485,162.6685,39360,39360,38576.5967,td,null,null,null,null,null,null,"[2,1]"
,canvas-keyboard-response,177,225927,0.0-6.0-3.28,65,,,,,clear_screen,null,null,,,critical,d,t,c,237.1485,162.6685,240,164,164,240,spektor,0.02,w,240,164,164,240,237.1485,162.6685,39360,39360,38576.5967,td,null,null,null,null,null,null,"[2,1]"
,canvas-keyboard-response,178,227228,0.0-6.0-4.28,65,,,,,make choice,1291,1,,,critical,d,t,c,237.1485,162.6685,240,164,164,240,spektor,0.02,w,240,164,164,240,237.1485,162.6685,39360,39360,38576.5967,td,null,null,null,null,null,null,"[2,1]"
,canvas-keyboard-response,179,227385,0.0-6.0-5.28,65,,,,,clear_screen,null,null,,,critical,d,t,c,237.1485,162.6685,240,164,164,240,spektor,0.02,w,240,164,164,240,237.1485,162.6685,39360,39360,38576.5967,td,null,null,null,null,null,null,"[2,1]"
,canvas-keyboard-response,180,227587,0.0-6.0-0.29,65,,,,,pre trial waiting period,null,null,,,critical,d,c,t,232.8713,160.6713,164,240,240,164,spektor,0.05,w,240,164,164,240,232.8713,160.6713,39360,39360,37415.7294,td,null,null,null,null,null,null,"[3,1]"
,canvas-keyboard-response,181,227747,0.0-6.0-1.29,65,,,,,clear_screen,null,null,,,critical,d,c,t,232.8713,160.6713,164,240,240,164,spektor,0.05,w,240,164,164,240,232.8713,160.6713,39360,39360,37415.7294,td,null,null,null,null,null,null,"[3,1]"
,canvas-keyboard-response,182,229085,0.0-6.0-2.29,65,,,,,rectangles,null,null,,,critical,d,c,t,232.8713,160.6713,164,240,240,164,spektor,0.05,w,240,164,164,240,232.8713,160.6713,39360,39360,37415.7294,td,null,null,null,null,null,null,"[3,1]"
,canvas-keyboard-response,183,229245,0.0-6.0-3.29,65,,,,,clear_screen,null,null,,,critical,d,c,t,232.8713,160.6713,164,240,240,164,spektor,0.05,w,240,164,164,240,232.8713,160.6713,39360,39360,37415.7294,td,null,null,null,null,null,null,"[3,1]"
,canvas-keyboard-response,184,230443,0.0-6.0-4.29,65,,,,,make choice,1189,3,,,critical,d,c,t,232.8713,160.6713,164,240,240,164,spektor,0.05,w,240,164,164,240,232.8713,160.6713,39360,39360,37415.7294,td,null,null,null,null,null,null,"[3,1]"
,canvas-keyboard-response,185,230601,0.0-6.0-5.29,65,,,,,clear_screen,null,null,,,critical,d,c,t,232.8713,160.6713,164,240,240,164,spektor,0.05,w,240,164,164,240,232.8713,160.6713,39360,39360,37415.7294,td,null,null,null,null,null,null,"[3,1]"
,canvas-keyboard-response,186,230802,0.0-6.0-0.30,65,,,,,pre trial waiting period,null,null,,,critical,d,t,c,160.6713,232.8713,164,240,240,164,spektor,0.05,h,164,240,240,164,160.6713,232.8713,39360,39360,37415.7294,td,null,null,null,null,null,null,"[2,1]"
,canvas-keyboard-response,187,230965,0.0-6.0-1.30,65,,,,,clear_screen,null,null,,,critical,d,t,c,160.6713,232.8713,164,240,240,164,spektor,0.05,h,164,240,240,164,160.6713,232.8713,39360,39360,37415.7294,td,null,null,null,null,null,null,"[2,1]"
,canvas-keyboard-response,188,232304,0.0-6.0-2.30,65,,,,,rectangles,null,null,,,critical,d,t,c,160.6713,232.8713,164,240,240,164,spektor,0.05,h,164,240,240,164,160.6713,232.8713,39360,39360,37415.7294,td,null,null,null,null,null,null,"[2,1]"
,canvas-keyboard-response,189,232461,0.0-6.0-3.30,65,,,,,clear_screen,null,null,,,critical,d,t,c,160.6713,232.8713,164,240,240,164,spektor,0.05,h,164,240,240,164,160.6713,232.8713,39360,39360,37415.7294,td,null,null,null,null,null,null,"[2,1]"
,canvas-keyboard-response,190,233643,0.0-6.0-4.30,65,,,,,make choice,1171,2,,,critical,d,t,c,160.6713,232.8713,164,240,240,164,spektor,0.05,h,164,240,240,164,160.6713,232.8713,39360,39360,37415.7294,td,null,null,null,null,null,null,"[2,1]"
,canvas-keyboard-response,191,233805,0.0-6.0-5.30,65,,,,,clear_screen,null,null,,,critical,d,t,c,160.6713,232.8713,164,240,240,164,spektor,0.05,h,164,240,240,164,160.6713,232.8713,39360,39360,37415.7294,td,null,null,null,null,null,null,"[2,1]"
,canvas-keyboard-response,192,234006,0.0-6.0-0.31,65,,,,,pre trial waiting period,null,null,,,critical,c,d,t,164,240,227.1683,158.0083,240,164,trueblood,0.09,w,240,164,164,240,227.1683,158.0083,39360,39360,35894.4834,dc,null,null,null,null,null,null,"[2,1]"
,canvas-keyboard-response,193,234165,0.0-6.0-1.31,65,,,,,clear_screen,null,null,,,critical,c,d,t,164,240,227.1683,158.0083,240,164,trueblood,0.09,w,240,164,164,240,227.1683,158.0083,39360,39360,35894.4834,dc,null,null,null,null,null,null,"[2,1]"
,canvas-keyboard-response,194,235502,0.0-6.0-2.31,65,,,,,rectangles,null,null,,,critical,c,d,t,164,240,227.1683,158.0083,240,164,trueblood,0.09,w,240,164,164,240,227.1683,158.0083,39360,39360,35894.4834,dc,null,null,null,null,null,null,"[2,1]"
,canvas-keyboard-response,195,235660,0.0-6.0-3.31,65,,,,,clear_screen,null,null,,,critical,c,d,t,164,240,227.1683,158.0083,240,164,trueblood,0.09,w,240,164,164,240,227.1683,158.0083,39360,39360,35894.4834,dc,null,null,null,null,null,null,"[2,1]"
,canvas-keyboard-response,196,236716,0.0-6.0-4.31,65,,,,,make choice,1047,2,,,critical,c,d,t,164,240,227.1683,158.0083,240,164,trueblood,0.09,w,240,164,164,240,227.1683,158.0083,39360,39360,35894.4834,dc,null,null,null,null,null,null,"[2,1]"
,canvas-keyboard-response,197,236875,0.0-6.0-5.31,65,,,,,clear_screen,null,null,,,critical,c,d,t,164,240,227.1683,158.0083,240,164,trueblood,0.09,w,240,164,164,240,227.1683,158.0083,39360,39360,35894.4834,dc,null,null,null,null,null,null,"[2,1]"
,canvas-keyboard-response,198,237076,0.0-6.0-0.32,65,,,,,pre trial waiting period,null,null,,,critical,d,c,t,154.6796,220.0396,240,164,164,240,spektor,0.14,h,164,240,240,164,154.6796,220.0396,39360,39360,34035.6388,td,null,null,null,null,null,null,"[3,1]"
,canvas-keyboard-response,199,237235,0.0-6.0-1.32,65,,,,,clear_screen,null,null,,,critical,d,c,t,154.6796,220.0396,240,164,164,240,spektor,0.14,h,164,240,240,164,154.6796,220.0396,39360,39360,34035.6388,td,null,null,null,null,null,null,"[3,1]"
,canvas-keyboard-response,200,238572,0.0-6.0-2.32,65,,,,,rectangles,null,null,,,critical,d,c,t,154.6796,220.0396,240,164,164,240,spektor,0.14,h,164,240,240,164,154.6796,220.0396,39360,39360,34035.6388,td,null,null,null,null,null,null,"[3,1]"
,canvas-keyboard-response,201,238732,0.0-6.0-3.32,65,,,,,clear_screen,null,null,,,critical,d,c,t,154.6796,220.0396,240,164,164,240,spektor,0.14,h,164,240,240,164,154.6796,220.0396,39360,39360,34035.6388,td,null,null,null,null,null,null,"[3,1]"
,canvas-keyboard-response,202,239803,0.0-6.0-4.32,65,,,,,make choice,1063,3,,,critical,d,c,t,154.6796,220.0396,240,164,164,240,spektor,0.14,h,164,240,240,164,154.6796,220.0396,39360,39360,34035.6388,td,null,null,null,null,null,null,"[3,1]"
,canvas-keyboard-response,203,239964,0.0-6.0-5.32,65,,,,,clear_screen,null,null,,,critical,d,c,t,154.6796,220.0396,240,164,164,240,spektor,0.14,h,164,240,240,164,154.6796,220.0396,39360,39360,34035.6388,td,null,null,null,null,null,null,"[3,1]"
,canvas-keyboard-response,204,240165,0.0-6.0-0.33,65,,,,,pre trial waiting period,null,null,,,catch,l,sw,sh,239,270,177,164,203,142,trueblood,null,null,null,null,null,null,null,null,null,null,null,,180,200,260,200,36000,52000,"[1,2]"
,canvas-keyboard-response,205,240327,0.0-6.0-1.33,65,,,,,clear_screen,null,null,,,catch,l,sw,sh,239,270,177,164,203,142,trueblood,null,null,null,null,null,null,null,null,null,null,null,,180,200,260,200,36000,52000,"[1,2]"
,canvas-keyboard-response,206,241662,0.0-6.0-2.33,65,,,,,rectangles,null,null,,,catch,l,sw,sh,239,270,177,164,203,142,trueblood,null,null,null,null,null,null,null,null,null,null,null,,180,200,260,200,36000,52000,"[1,2]"
,canvas-keyboard-response,207,241821,0.0-6.0-3.33,65,,,,,clear_screen,null,null,,,catch,l,sw,sh,239,270,177,164,203,142,trueblood,null,null,null,null,null,null,null,null,null,null,null,,180,200,260,200,36000,52000,"[1,2]"
,canvas-keyboard-response,208,242899,0.0-6.0-4.33,65,,,,,make choice,1067,1,,,catch,l,sw,sh,239,270,177,164,203,142,trueblood,null,null,null,null,null,null,null,null,null,null,null,,180,200,260,200,36000,52000,"[1,2]"
,canvas-keyboard-response,209,243059,0.0-6.0-5.33,65,,,,,clear_screen,null,null,,,catch,l,sw,sh,239,270,177,164,203,142,trueblood,null,null,null,null,null,null,null,null,null,null,null,,180,200,260,200,36000,52000,"[1,2]"
,canvas-keyboard-response,210,243261,0.0-6.0-0.34,65,,,,,pre trial waiting period,null,null,,,critical,c,d,t,164,240,220.0396,154.6796,240,164,trueblood,0.14,w,240,164,164,240,220.0396,154.6796,39360,39360,34035.6388,dc,null,null,null,null,null,null,"[2,1]"
,canvas-keyboard-response,211,243423,0.0-6.0-1.34,65,,,,,clear_screen,null,null,,,critical,c,d,t,164,240,220.0396,154.6796,240,164,trueblood,0.14,w,240,164,164,240,220.0396,154.6796,39360,39360,34035.6388,dc,null,null,null,null,null,null,"[2,1]"
,canvas-keyboard-response,212,244759,0.0-6.0-2.34,65,,,,,rectangles,null,null,,,critical,c,d,t,164,240,220.0396,154.6796,240,164,trueblood,0.14,w,240,164,164,240,220.0396,154.6796,39360,39360,34035.6388,dc,null,null,null,null,null,null,"[2,1]"
,canvas-keyboard-response,213,244919,0.0-6.0-3.34,65,,,,,clear_screen,null,null,,,critical,c,d,t,164,240,220.0396,154.6796,240,164,trueblood,0.14,w,240,164,164,240,220.0396,154.6796,39360,39360,34035.6388,dc,null,null,null,null,null,null,"[2,1]"
,canvas-keyboard-response,214,245845,0.0-6.0-4.34,65,,,,,make choice,915,1,,,critical,c,d,t,164,240,220.0396,154.6796,240,164,trueblood,0.14,w,240,164,164,240,220.0396,154.6796,39360,39360,34035.6388,dc,null,null,null,null,null,null,"[2,1]"
,canvas-keyboard-response,215,246004,0.0-6.0-5.34,65,,,,,clear_screen,null,null,,,critical,c,d,t,164,240,220.0396,154.6796,240,164,trueblood,0.14,w,240,164,164,240,220.0396,154.6796,39360,39360,34035.6388,dc,null,null,null,null,null,null,"[2,1]"
,canvas-keyboard-response,216,246207,0.0-6.0-0.35,65,,,,,pre trial waiting period,null,null,,,critical,c,t,d,240,164,164,240,158.0083,227.1683,trueblood,0.09,h,164,240,240,164,158.0083,227.1683,39360,39360,35894.4834,dc,null,null,null,null,null,null,"[3,1]"
,canvas-keyboard-response,217,246366,0.0-6.0-1.35,65,,,,,clear_screen,null,null,,,critical,c,t,d,240,164,164,240,158.0083,227.1683,trueblood,0.09,h,164,240,240,164,158.0083,227.1683,39360,39360,35894.4834,dc,null,null,null,null,null,null,"[3,1]"
,canvas-keyboard-response,218,247701,0.0-6.0-2.35,65,,,,,rectangles,null,null,,,critical,c,t,d,240,164,164,240,158.0083,227.1683,trueblood,0.09,h,164,240,240,164,158.0083,227.1683,39360,39360,35894.4834,dc,null,null,null,null,null,null,"[3,1]"
,canvas-keyboard-response,219,247865,0.0-6.0-3.35,65,,,,,clear_screen,null,null,,,critical,c,t,d,240,164,164,240,158.0083,227.1683,trueblood,0.09,h,164,240,240,164,158.0083,227.1683,39360,39360,35894.4834,dc,null,null,null,null,null,null,"[3,1]"
,canvas-keyboard-response,220,249092,0.0-6.0-4.35,65,,,,,make choice,1214,1,,,critical,c,t,d,240,164,164,240,158.0083,227.1683,trueblood,0.09,h,164,240,240,164,158.0083,227.1683,39360,39360,35894.4834,dc,null,null,null,null,null,null,"[3,1]"
,canvas-keyboard-response,221,249251,0.0-6.0-5.35,65,,,,,clear_screen,null,null,,,critical,c,t,d,240,164,164,240,158.0083,227.1683,trueblood,0.09,h,164,240,240,164,158.0083,227.1683,39360,39360,35894.4834,dc,null,null,null,null,null,null,"[3,1]"
,canvas-keyboard-response,222,249452,0.0-6.0-0.36,65,,,,,pre trial waiting period,null,null,,,critical,t,c,d,240,164,164,240,237.1485,162.6685,spektor,0.02,w,240,164,164,240,237.1485,162.6685,39360,39360,38576.5967,tc,null,null,null,null,null,null,"[1,2]"
,canvas-keyboard-response,223,249612,0.0-6.0-1.36,65,,,,,clear_screen,null,null,,,critical,t,c,d,240,164,164,240,237.1485,162.6685,spektor,0.02,w,240,164,164,240,237.1485,162.6685,39360,39360,38576.5967,tc,null,null,null,null,null,null,"[1,2]"
,canvas-keyboard-response,224,250946,0.0-6.0-2.36,65,,,,,rectangles,null,null,,,critical,t,c,d,240,164,164,240,237.1485,162.6685,spektor,0.02,w,240,164,164,240,237.1485,162.6685,39360,39360,38576.5967,tc,null,null,null,null,null,null,"[1,2]"
,canvas-keyboard-response,225,251106,0.0-6.0-3.36,65,,,,,clear_screen,null,null,,,critical,t,c,d,240,164,164,240,237.1485,162.6685,spektor,0.02,w,240,164,164,240,237.1485,162.6685,39360,39360,38576.5967,tc,null,null,null,null,null,null,"[1,2]"
,canvas-keyboard-response,226,252524,0.0-6.0-4.36,65,,,,,make choice,1409,2,,,critical,t,c,d,240,164,164,240,237.1485,162.6685,spektor,0.02,w,240,164,164,240,237.1485,162.6685,39360,39360,38576.5967,tc,null,null,null,null,null,null,"[1,2]"
,canvas-keyboard-response,227,252683,0.0-6.0-5.36,65,,,,,clear_screen,null,null,,,critical,t,c,d,240,164,164,240,237.1485,162.6685,spektor,0.02,w,240,164,164,240,237.1485,162.6685,39360,39360,38576.5967,tc,null,null,null,null,null,null,"[1,2]"
,canvas-keyboard-response,228,252885,0.0-6.0-0.37,65,,,,,pre trial waiting period,null,null,,,catch,l,sh,sw,239,164,192,215,169,173,trueblood,null,null,null,null,null,null,null,null,null,null,null,,180,200,260,200,36000,52000,"[1,3]"
,canvas-keyboard-response,229,253048,0.0-6.0-1.37,65,,,,,clear_screen,null,null,,,catch,l,sh,sw,239,164,192,215,169,173,trueblood,null,null,null,null,null,null,null,null,null,null,null,,180,200,260,200,36000,52000,"[1,3]"
,canvas-keyboard-response,230,254382,0.0-6.0-2.37,65,,,,,rectangles,null,null,,,catch,l,sh,sw,239,164,192,215,169,173,trueblood,null,null,null,null,null,null,null,null,null,null,null,,180,200,260,200,36000,52000,"[1,3]"
,canvas-keyboard-response,231,254543,0.0-6.0-3.37,65,,,,,clear_screen,null,null,,,catch,l,sh,sw,239,164,192,215,169,173,trueblood,null,null,null,null,null,null,null,null,null,null,null,,180,200,260,200,36000,52000,"[1,3]"
,canvas-keyboard-response,232,255349,0.0-6.0-4.37,65,,,,,make choice,796,1,,,catch,l,sh,sw,239,164,192,215,169,173,trueblood,null,null,null,null,null,null,null,null,null,null,null,,180,200,260,200,36000,52000,"[1,3]"
,canvas-keyboard-response,233,255516,0.0-6.0-5.37,65,,,,,clear_screen,null,null,,,catch,l,sh,sw,239,164,192,215,169,173,trueblood,null,null,null,null,null,null,null,null,null,null,null,,180,200,260,200,36000,52000,"[1,3]"
,canvas-keyboard-response,234,255717,0.0-6.0-0.38,65,,,,,pre trial waiting period,null,null,,,critical,d,c,t,220.0396,154.6796,164,240,240,164,spektor,0.14,w,240,164,164,240,220.0396,154.6796,39360,39360,34035.6388,td,null,null,null,null,null,null,"[3,1]"
,canvas-keyboard-response,235,255877,0.0-6.0-1.38,65,,,,,clear_screen,null,null,,,critical,d,c,t,220.0396,154.6796,164,240,240,164,spektor,0.14,w,240,164,164,240,220.0396,154.6796,39360,39360,34035.6388,td,null,null,null,null,null,null,"[3,1]"
,canvas-keyboard-response,236,257214,0.0-6.0-2.38,65,,,,,rectangles,null,null,,,critical,d,c,t,220.0396,154.6796,164,240,240,164,spektor,0.14,w,240,164,164,240,220.0396,154.6796,39360,39360,34035.6388,td,null,null,null,null,null,null,"[3,1]"
,canvas-keyboard-response,237,257374,0.0-6.0-3.38,65,,,,,clear_screen,null,null,,,critical,d,c,t,220.0396,154.6796,164,240,240,164,spektor,0.14,w,240,164,164,240,220.0396,154.6796,39360,39360,34035.6388,td,null,null,null,null,null,null,"[3,1]"
,canvas-keyboard-response,238,258851,0.0-6.0-4.38,65,,,,,make choice,1467,3,,,critical,d,c,t,220.0396,154.6796,164,240,240,164,spektor,0.14,w,240,164,164,240,220.0396,154.6796,39360,39360,34035.6388,td,null,null,null,null,null,null,"[3,1]"
,canvas-keyboard-response,239,259010,0.0-6.0-5.38,65,,,,,clear_screen,null,null,,,critical,d,c,t,220.0396,154.6796,164,240,240,164,spektor,0.14,w,240,164,164,240,220.0396,154.6796,39360,39360,34035.6388,td,null,null,null,null,null,null,"[3,1]"
,canvas-keyboard-response,240,259212,0.0-6.0-0.39,65,,,,,pre trial waiting period,null,null,,,critical,d,t,c,162.6685,237.1485,164,240,240,164,spektor,0.02,h,164,240,240,164,162.6685,237.1485,39360,39360,38576.5967,dc,null,null,null,null,null,null,"[1,3]"
,canvas-keyboard-response,241,259373,0.0-6.0-1.39,65,,,,,clear_screen,null,null,,,critical,d,t,c,162.6685,237.1485,164,240,240,164,spektor,0.02,h,164,240,240,164,162.6685,237.1485,39360,39360,38576.5967,dc,null,null,null,null,null,null,"[1,3]"
,canvas-keyboard-response,242,260710,0.0-6.0-2.39,65,,,,,rectangles,null,null,,,critical,d,t,c,162.6685,237.1485,164,240,240,164,spektor,0.02,h,164,240,240,164,162.6685,237.1485,39360,39360,38576.5967,dc,null,null,null,null,null,null,"[1,3]"
,canvas-keyboard-response,243,260868,0.0-6.0-3.39,65,,,,,clear_screen,null,null,,,critical,d,t,c,162.6685,237.1485,164,240,240,164,spektor,0.02,h,164,240,240,164,162.6685,237.1485,39360,39360,38576.5967,dc,null,null,null,null,null,null,"[1,3]"
,canvas-keyboard-response,244,261747,0.0-6.0-4.39,65,,,,,make choice,869,1,,,critical,d,t,c,162.6685,237.1485,164,240,240,164,spektor,0.02,h,164,240,240,164,162.6685,237.1485,39360,39360,38576.5967,dc,null,null,null,null,null,null,"[1,3]"
,canvas-keyboard-response,245,261907,0.0-6.0-5.39,65,,,,,clear_screen,null,null,,,critical,d,t,c,162.6685,237.1485,164,240,240,164,spektor,0.02,h,164,240,240,164,162.6685,237.1485,39360,39360,38576.5967,dc,null,null,null,null,null,null,"[1,3]"
,canvas-keyboard-response,246,262109,0.0-6.0-0.40,65,,,,,pre trial waiting period,null,null,,,critical,c,d,t,240,164,160.6713,232.8713,164,240,trueblood,0.05,h,164,240,240,164,160.6713,232.8713,39360,39360,37415.7294,td,null,null,null,null,null,null,"[3,2]"
,canvas-keyboard-response,247,262268,0.0-6.0-1.40,65,,,,,clear_screen,null,null,,,critical,c,d,t,240,164,160.6713,232.8713,164,240,trueblood,0.05,h,164,240,240,164,160.6713,232.8713,39360,39360,37415.7294,td,null,null,null,null,null,null,"[3,2]"
,canvas-keyboard-response,248,263602,0.0-6.0-2.40,65,,,,,rectangles,null,null,,,critical,c,d,t,240,164,160.6713,232.8713,164,240,trueblood,0.05,h,164,240,240,164,160.6713,232.8713,39360,39360,37415.7294,td,null,null,null,null,null,null,"[3,2]"
,canvas-keyboard-response,249,263761,0.0-6.0-3.40,65,,,,,clear_screen,null,null,,,critical,c,d,t,240,164,160.6713,232.8713,164,240,trueblood,0.05,h,164,240,240,164,160.6713,232.8713,39360,39360,37415.7294,td,null,null,null,null,null,null,"[3,2]"
,canvas-keyboard-response,250,265644,0.0-6.0-4.40,65,,,,,make choice,1871,3,,,critical,c,d,t,240,164,160.6713,232.8713,164,240,trueblood,0.05,h,164,240,240,164,160.6713,232.8713,39360,39360,37415.7294,td,null,null,null,null,null,null,"[3,2]"
,canvas-keyboard-response,251,265803,0.0-6.0-5.40,65,,,,,clear_screen,null,null,,,critical,c,d,t,240,164,160.6713,232.8713,164,240,trueblood,0.05,h,164,240,240,164,160.6713,232.8713,39360,39360,37415.7294,td,null,null,null,null,null,null,"[3,2]"
,canvas-keyboard-response,252,266004,0.0-6.0-0.41,65,,,,,pre trial waiting period,null,null,,,critical,t,d,c,240,164,232.8713,160.6713,164,240,spektor,0.05,w,240,164,164,240,232.8713,160.6713,39360,39360,37415.7294,dc,null,null,null,null,null,null,"[2,3]"
,canvas-keyboard-response,253,266163,0.0-6.0-1.41,65,,,,,clear_screen,null,null,,,critical,t,d,c,240,164,232.8713,160.6713,164,240,spektor,0.05,w,240,164,164,240,232.8713,160.6713,39360,39360,37415.7294,dc,null,null,null,null,null,null,"[2,3]"
,canvas-keyboard-response,254,267500,0.0-6.0-2.41,65,,,,,rectangles,null,null,,,critical,t,d,c,240,164,232.8713,160.6713,164,240,spektor,0.05,w,240,164,164,240,232.8713,160.6713,39360,39360,37415.7294,dc,null,null,null,null,null,null,"[2,3]"
,canvas-keyboard-response,255,267659,0.0-6.0-3.41,65,,,,,clear_screen,null,null,,,critical,t,d,c,240,164,232.8713,160.6713,164,240,spektor,0.05,w,240,164,164,240,232.8713,160.6713,39360,39360,37415.7294,dc,null,null,null,null,null,null,"[2,3]"
,canvas-keyboard-response,256,268691,0.0-6.0-4.41,65,,,,,make choice,1025,3,,,critical,t,d,c,240,164,232.8713,160.6713,164,240,spektor,0.05,w,240,164,164,240,232.8713,160.6713,39360,39360,37415.7294,dc,null,null,null,null,null,null,"[2,3]"
,canvas-keyboard-response,257,268849,0.0-6.0-5.41,65,,,,,clear_screen,null,null,,,critical,t,d,c,240,164,232.8713,160.6713,164,240,spektor,0.05,w,240,164,164,240,232.8713,160.6713,39360,39360,37415.7294,dc,null,null,null,null,null,null,"[2,3]"
,canvas-keyboard-response,258,269049,0.0-6.0-0.42,65,,,,,pre trial waiting period,null,null,,,critical,t,c,d,240,164,164,240,240,164,spektor,0,w,240,164,164,240,240,164,39360,39360,39360,dc,null,null,null,null,null,null,"[3,2]"
,canvas-keyboard-response,259,269212,0.0-6.0-1.42,65,,,,,clear_screen,null,null,,,critical,t,c,d,240,164,164,240,240,164,spektor,0,w,240,164,164,240,240,164,39360,39360,39360,dc,null,null,null,null,null,null,"[3,2]"
,canvas-keyboard-response,260,270550,0.0-6.0-2.42,65,,,,,rectangles,null,null,,,critical,t,c,d,240,164,164,240,240,164,spektor,0,w,240,164,164,240,240,164,39360,39360,39360,dc,null,null,null,null,null,null,"[3,2]"
,canvas-keyboard-response,261,270712,0.0-6.0-3.42,65,,,,,clear_screen,null,null,,,critical,t,c,d,240,164,164,240,240,164,spektor,0,w,240,164,164,240,240,164,39360,39360,39360,dc,null,null,null,null,null,null,"[3,2]"
,canvas-keyboard-response,262,272051,0.0-6.0-4.42,65,,,,,make choice,1327,2,,,critical,t,c,d,240,164,164,240,240,164,spektor,0,w,240,164,164,240,240,164,39360,39360,39360,dc,null,null,null,null,null,null,"[3,2]"
,canvas-keyboard-response,263,272211,0.0-6.0-5.42,65,,,,,clear_screen,null,null,,,critical,t,c,d,240,164,164,240,240,164,spektor,0,w,240,164,164,240,240,164,39360,39360,39360,dc,null,null,null,null,null,null,"[3,2]"
,canvas-keyboard-response,264,272412,0.0-6.0-0.43,65,,,,,pre trial waiting period,null,null,,,catch,l,sw,sh,206,232,155,203,167,213,spektor,null,null,null,null,null,null,null,null,null,null,null,,180,200,260,200,36000,52000,"[1,2]"
,canvas-keyboard-response,265,272572,0.0-6.0-1.43,65,,,,,clear_screen,null,null,,,catch,l,sw,sh,206,232,155,203,167,213,spektor,null,null,null,null,null,null,null,null,null,null,null,,180,200,260,200,36000,52000,"[1,2]"
,canvas-keyboard-response,266,273906,0.0-6.0-2.43,65,,,,,rectangles,null,null,,,catch,l,sw,sh,206,232,155,203,167,213,spektor,null,null,null,null,null,null,null,null,null,null,null,,180,200,260,200,36000,52000,"[1,2]"
,canvas-keyboard-response,267,274070,0.0-6.0-3.43,65,,,,,clear_screen,null,null,,,catch,l,sw,sh,206,232,155,203,167,213,spektor,null,null,null,null,null,null,null,null,null,null,null,,180,200,260,200,36000,52000,"[1,2]"
,canvas-keyboard-response,268,274740,0.0-6.0-4.43,65,,,,,make choice,660,1,,,catch,l,sw,sh,206,232,155,203,167,213,spektor,null,null,null,null,null,null,null,null,null,null,null,,180,200,260,200,36000,52000,"[1,2]"
,canvas-keyboard-response,269,274902,0.0-6.0-5.43,65,,,,,clear_screen,null,null,,,catch,l,sw,sh,206,232,155,203,167,213,spektor,null,null,null,null,null,null,null,null,null,null,null,,180,200,260,200,36000,52000,"[1,2]"
,canvas-keyboard-response,270,275105,0.0-6.0-0.44,65,,,,,pre trial waiting period,null,null,,,critical,d,t,c,162.6685,237.1485,164,240,240,164,spektor,0.02,h,164,240,240,164,162.6685,237.1485,39360,39360,38576.5967,td,null,null,null,null,null,null,"[2,1]"
,canvas-keyboard-response,271,275267,0.0-6.0-1.44,65,,,,,clear_screen,null,null,,,critical,d,t,c,162.6685,237.1485,164,240,240,164,spektor,0.02,h,164,240,240,164,162.6685,237.1485,39360,39360,38576.5967,td,null,null,null,null,null,null,"[2,1]"
,canvas-keyboard-response,272,276604,0.0-6.0-2.44,65,,,,,rectangles,null,null,,,critical,d,t,c,162.6685,237.1485,164,240,240,164,spektor,0.02,h,164,240,240,164,162.6685,237.1485,39360,39360,38576.5967,td,null,null,null,null,null,null,"[2,1]"
,canvas-keyboard-response,273,276766,0.0-6.0-3.44,65,,,,,clear_screen,null,null,,,critical,d,t,c,162.6685,237.1485,164,240,240,164,spektor,0.02,h,164,240,240,164,162.6685,237.1485,39360,39360,38576.5967,td,null,null,null,null,null,null,"[2,1]"
,canvas-keyboard-response,274,277740,0.0-6.0-4.44,65,,,,,make choice,963,1,,,critical,d,t,c,162.6685,237.1485,164,240,240,164,spektor,0.02,h,164,240,240,164,162.6685,237.1485,39360,39360,38576.5967,td,null,null,null,null,null,null,"[2,1]"
,canvas-keyboard-response,275,277899,0.0-6.0-5.44,65,,,,,clear_screen,null,null,,,critical,d,t,c,162.6685,237.1485,164,240,240,164,spektor,0.02,h,164,240,240,164,162.6685,237.1485,39360,39360,38576.5967,td,null,null,null,null,null,null,"[2,1]"
,canvas-keyboard-response,276,278102,0.0-6.0-0.45,65,,,,,pre trial waiting period,null,null,,,catch,sh,l,sw,210,194,192,288,147,228,spektor,null,null,null,null,null,null,null,null,null,null,null,,180,200,260,200,36000,52000,"[2,3]"
,canvas-keyboard-response,277,278262,0.0-6.0-1.45,65,,,,,clear_screen,null,null,,,catch,sh,l,sw,210,194,192,288,147,228,spektor,null,null,null,null,null,null,null,null,null,null,null,,180,200,260,200,36000,52000,"[2,3]"
,canvas-keyboard-response,278,279600,0.0-6.0-2.45,65,,,,,rectangles,null,null,,,catch,sh,l,sw,210,194,192,288,147,228,spektor,null,null,null,null,null,null,null,null,null,null,null,,180,200,260,200,36000,52000,"[2,3]"
,canvas-keyboard-response,279,279761,0.0-6.0-3.45,65,,,,,clear_screen,null,null,,,catch,sh,l,sw,210,194,192,288,147,228,spektor,null,null,null,null,null,null,null,null,null,null,null,,180,200,260,200,36000,52000,"[2,3]"
,canvas-keyboard-response,280,280500,0.0-6.0-4.45,65,,,,,make choice,726,2,,,catch,sh,l,sw,210,194,192,288,147,228,spektor,null,null,null,null,null,null,null,null,null,null,null,,180,200,260,200,36000,52000,"[2,3]"
,canvas-keyboard-response,281,280662,0.0-6.0-5.45,65,,,,,clear_screen,null,null,,,catch,sh,l,sw,210,194,192,288,147,228,spektor,null,null,null,null,null,null,null,null,null,null,null,,180,200,260,200,36000,52000,"[2,3]"
,canvas-keyboard-response,282,280864,0.0-6.0-0.46,65,,,,,pre trial waiting period,null,null,,,critical,d,t,c,154.6796,220.0396,164,240,240,164,spektor,0.14,h,164,240,240,164,154.6796,220.0396,39360,39360,34035.6388,tc,null,null,null,null,null,null,"[2,3]"
,canvas-keyboard-response,283,281023,0.0-6.0-1.46,65,,,,,clear_screen,null,null,,,critical,d,t,c,154.6796,220.0396,164,240,240,164,spektor,0.14,h,164,240,240,164,154.6796,220.0396,39360,39360,34035.6388,tc,null,null,null,null,null,null,"[2,3]"
,canvas-keyboard-response,284,282358,0.0-6.0-2.46,65,,,,,rectangles,null,null,,,critical,d,t,c,154.6796,220.0396,164,240,240,164,spektor,0.14,h,164,240,240,164,154.6796,220.0396,39360,39360,34035.6388,tc,null,null,null,null,null,null,"[2,3]"
,canvas-keyboard-response,285,282518,0.0-6.0-3.46,65,,,,,clear_screen,null,null,,,critical,d,t,c,154.6796,220.0396,164,240,240,164,spektor,0.14,h,164,240,240,164,154.6796,220.0396,39360,39360,34035.6388,tc,null,null,null,null,null,null,"[2,3]"
,canvas-keyboard-response,286,283852,0.0-6.0-4.46,65,,,,,make choice,1324,2,,,critical,d,t,c,154.6796,220.0396,164,240,240,164,spektor,0.14,h,164,240,240,164,154.6796,220.0396,39360,39360,34035.6388,tc,null,null,null,null,null,null,"[2,3]"
,canvas-keyboard-response,287,284013,0.0-6.0-5.46,65,,,,,clear_screen,null,null,,,critical,d,t,c,154.6796,220.0396,164,240,240,164,spektor,0.14,h,164,240,240,164,154.6796,220.0396,39360,39360,34035.6388,tc,null,null,null,null,null,null,"[2,3]"
,canvas-keyboard-response,288,284215,0.0-6.0-0.47,65,,,,,pre trial waiting period,null,null,,,catch,sw,l,sh,180,200,237,199,211,166,trueblood,null,null,null,null,null,null,null,null,null,null,null,,180,200,260,200,36000,52000,"[1,2]"
,canvas-keyboard-response,289,284376,0.0-6.0-1.47,65,,,,,clear_screen,null,null,,,catch,sw,l,sh,180,200,237,199,211,166,trueblood,null,null,null,null,null,null,null,null,null,null,null,,180,200,260,200,36000,52000,"[1,2]"
,canvas-keyboard-response,290,285714,0.0-6.0-2.47,65,,,,,rectangles,null,null,,,catch,sw,l,sh,180,200,237,199,211,166,trueblood,null,null,null,null,null,null,null,null,null,null,null,,180,200,260,200,36000,52000,"[1,2]"
,canvas-keyboard-response,291,285873,0.0-6.0-3.47,65,,,,,clear_screen,null,null,,,catch,sw,l,sh,180,200,237,199,211,166,trueblood,null,null,null,null,null,null,null,null,null,null,null,,180,200,260,200,36000,52000,"[1,2]"
,canvas-keyboard-response,292,286571,0.0-6.0-4.47,65,,,,,make choice,686,2,,,catch,sw,l,sh,180,200,237,199,211,166,trueblood,null,null,null,null,null,null,null,null,null,null,null,,180,200,260,200,36000,52000,"[1,2]"
,canvas-keyboard-response,293,286729,0.0-6.0-5.47,65,,,,,clear_screen,null,null,,,catch,sw,l,sh,180,200,237,199,211,166,trueblood,null,null,null,null,null,null,null,null,null,null,null,,180,200,260,200,36000,52000,"[1,2]"
,canvas-keyboard-response,294,286930,0.0-6.0-0.48,65,,,,,pre trial waiting period,null,null,,,critical,t,d,c,164,240,162.6685,237.1485,240,164,spektor,0.02,h,164,240,240,164,162.6685,237.1485,39360,39360,38576.5967,tc,null,null,null,null,null,null,"[1,3]"
,canvas-keyboard-response,295,287089,0.0-6.0-1.48,65,,,,,clear_screen,null,null,,,critical,t,d,c,164,240,162.6685,237.1485,240,164,spektor,0.02,h,164,240,240,164,162.6685,237.1485,39360,39360,38576.5967,tc,null,null,null,null,null,null,"[1,3]"
,canvas-keyboard-response,296,288424,0.0-6.0-2.48,65,,,,,rectangles,null,null,,,critical,t,d,c,164,240,162.6685,237.1485,240,164,spektor,0.02,h,164,240,240,164,162.6685,237.1485,39360,39360,38576.5967,tc,null,null,null,null,null,null,"[1,3]"
,canvas-keyboard-response,297,288582,0.0-6.0-3.48,65,,,,,clear_screen,null,null,,,critical,t,d,c,164,240,162.6685,237.1485,240,164,spektor,0.02,h,164,240,240,164,162.6685,237.1485,39360,39360,38576.5967,tc,null,null,null,null,null,null,"[1,3]"
,canvas-keyboard-response,298,289531,0.0-6.0-4.48,65,,,,,make choice,943,1,,,critical,t,d,c,164,240,162.6685,237.1485,240,164,spektor,0.02,h,164,240,240,164,162.6685,237.1485,39360,39360,38576.5967,tc,null,null,null,null,null,null,"[1,3]"
,canvas-keyboard-response,299,289689,0.0-6.0-5.48,65,,,,,clear_screen,null,null,,,critical,t,d,c,164,240,162.6685,237.1485,240,164,spektor,0.02,h,164,240,240,164,162.6685,237.1485,39360,39360,38576.5967,tc,null,null,null,null,null,null,"[1,3]"
,canvas-keyboard-response,300,289891,0.0-6.0-0.49,65,,,,,pre trial waiting period,null,null,,,critical,c,t,d,164,240,240,164,240,164,spektor,0,w,240,164,164,240,240,164,39360,39360,39360,tc,null,null,null,null,null,null,"[2,1]"
,canvas-keyboard-response,301,290051,0.0-6.0-1.49,65,,,,,clear_screen,null,null,,,critical,c,t,d,164,240,240,164,240,164,spektor,0,w,240,164,164,240,240,164,39360,39360,39360,tc,null,null,null,null,null,null,"[2,1]"
,canvas-keyboard-response,302,291387,0.0-6.0-2.49,65,,,,,rectangles,null,null,,,critical,c,t,d,164,240,240,164,240,164,spektor,0,w,240,164,164,240,240,164,39360,39360,39360,tc,null,null,null,null,null,null,"[2,1]"
,canvas-keyboard-response,303,291546,0.0-6.0-3.49,65,,,,,clear_screen,null,null,,,critical,c,t,d,164,240,240,164,240,164,spektor,0,w,240,164,164,240,240,164,39360,39360,39360,tc,null,null,null,null,null,null,"[2,1]"
,canvas-keyboard-response,304,292532,0.0-6.0-4.49,65,,,,,make choice,979,1,,,critical,c,t,d,164,240,240,164,240,164,spektor,0,w,240,164,164,240,240,164,39360,39360,39360,tc,null,null,null,null,null,null,"[2,1]"
,canvas-keyboard-response,305,292690,0.0-6.0-5.49,65,,,,,clear_screen,null,null,,,critical,c,t,d,164,240,240,164,240,164,spektor,0,w,240,164,164,240,240,164,39360,39360,39360,tc,null,null,null,null,null,null,"[2,1]"
,canvas-keyboard-response,306,292893,0.0-6.0-0.50,65,,,,,pre trial waiting period,null,null,,,critical,t,d,c,164,240,154.6796,220.0396,240,164,trueblood,0.14,h,164,240,240,164,154.6796,220.0396,39360,39360,34035.6388,tc,null,null,null,null,null,null,"[1,3]"
,canvas-keyboard-response,307,293052,0.0-6.0-1.50,65,,,,,clear_screen,null,null,,,critical,t,d,c,164,240,154.6796,220.0396,240,164,trueblood,0.14,h,164,240,240,164,154.6796,220.0396,39360,39360,34035.6388,tc,null,null,null,null,null,null,"[1,3]"
,canvas-keyboard-response,308,294390,0.0-6.0-2.50,65,,,,,rectangles,null,null,,,critical,t,d,c,164,240,154.6796,220.0396,240,164,trueblood,0.14,h,164,240,240,164,154.6796,220.0396,39360,39360,34035.6388,tc,null,null,null,null,null,null,"[1,3]"
,canvas-keyboard-response,309,294552,0.0-6.0-3.50,65,,,,,clear_screen,null,null,,,critical,t,d,c,164,240,154.6796,220.0396,240,164,trueblood,0.14,h,164,240,240,164,154.6796,220.0396,39360,39360,34035.6388,tc,null,null,null,null,null,null,"[1,3]"
,canvas-keyboard-response,310,295732,0.0-6.0-4.50,65,,,,,make choice,1168,3,,,critical,t,d,c,164,240,154.6796,220.0396,240,164,trueblood,0.14,h,164,240,240,164,154.6796,220.0396,39360,39360,34035.6388,tc,null,null,null,null,null,null,"[1,3]"
,canvas-keyboard-response,311,295892,0.0-6.0-5.50,65,,,,,clear_screen,null,null,,,critical,t,d,c,164,240,154.6796,220.0396,240,164,trueblood,0.14,h,164,240,240,164,154.6796,220.0396,39360,39360,34035.6388,tc,null,null,null,null,null,null,"[1,3]"
,canvas-keyboard-response,312,296093,0.0-6.0-0.51,65,,,,,pre trial waiting period,null,null,,,critical,t,c,d,240,164,164,240,232.8713,160.6713,spektor,0.05,w,240,164,164,240,232.8713,160.6713,39360,39360,37415.7294,tc,null,null,null,null,null,null,"[1,2]"
,canvas-keyboard-response,313,296248,0.0-6.0-1.51,65,,,,,clear_screen,null,null,,,critical,t,c,d,240,164,164,240,232.8713,160.6713,spektor,0.05,w,240,164,164,240,232.8713,160.6713,39360,39360,37415.7294,tc,null,null,null,null,null,null,"[1,2]"
,canvas-keyboard-response,314,297586,0.0-6.0-2.51,65,,,,,rectangles,null,null,,,critical,t,c,d,240,164,164,240,232.8713,160.6713,spektor,0.05,w,240,164,164,240,232.8713,160.6713,39360,39360,37415.7294,tc,null,null,null,null,null,null,"[1,2]"
,canvas-keyboard-response,315,297742,0.0-6.0-3.51,65,,,,,clear_screen,null,null,,,critical,t,c,d,240,164,164,240,232.8713,160.6713,spektor,0.05,w,240,164,164,240,232.8713,160.6713,39360,39360,37415.7294,tc,null,null,null,null,null,null,"[1,2]"
,canvas-keyboard-response,316,298980,0.0-6.0-4.51,65,,,,,make choice,1226,2,,,critical,t,c,d,240,164,164,240,232.8713,160.6713,spektor,0.05,w,240,164,164,240,232.8713,160.6713,39360,39360,37415.7294,tc,null,null,null,null,null,null,"[1,2]"
,canvas-keyboard-response,317,299139,0.0-6.0-5.51,65,,,,,clear_screen,null,null,,,critical,t,c,d,240,164,164,240,232.8713,160.6713,spektor,0.05,w,240,164,164,240,232.8713,160.6713,39360,39360,37415.7294,tc,null,null,null,null,null,null,"[1,2]"
,canvas-keyboard-response,318,299339,0.0-6.0-0.52,65,,,,,pre trial waiting period,null,null,,,critical,d,t,c,164,240,164,240,240,164,spektor,0,h,164,240,240,164,164,240,39360,39360,39360,dc,null,null,null,null,null,null,"[1,3]"
,canvas-keyboard-response,319,299498,0.0-6.0-1.52,65,,,,,clear_screen,null,null,,,critical,d,t,c,164,240,164,240,240,164,spektor,0,h,164,240,240,164,164,240,39360,39360,39360,dc,null,null,null,null,null,null,"[1,3]"
,canvas-keyboard-response,320,300836,0.0-6.0-2.52,65,,,,,rectangles,null,null,,,critical,d,t,c,164,240,164,240,240,164,spektor,0,h,164,240,240,164,164,240,39360,39360,39360,dc,null,null,null,null,null,null,"[1,3]"
,canvas-keyboard-response,321,300997,0.0-6.0-3.52,65,,,,,clear_screen,null,null,,,critical,d,t,c,164,240,164,240,240,164,spektor,0,h,164,240,240,164,164,240,39360,39360,39360,dc,null,null,null,null,null,null,"[1,3]"
,canvas-keyboard-response,322,303765,0.0-6.0-4.52,65,,,,,make choice,2758,3,,,critical,d,t,c,164,240,164,240,240,164,spektor,0,h,164,240,240,164,164,240,39360,39360,39360,dc,null,null,null,null,null,null,"[1,3]"
,canvas-keyboard-response,323,303921,0.0-6.0-5.52,65,,,,,clear_screen,null,null,,,critical,d,t,c,164,240,164,240,240,164,spektor,0,h,164,240,240,164,164,240,39360,39360,39360,dc,null,null,null,null,null,null,"[1,3]"
,canvas-keyboard-response,324,304123,0.0-6.0-0.53,65,,,,,pre trial waiting period,null,null,,,catch,l,sh,sw,260,215,180,147,211,178,trueblood,null,null,null,null,null,null,null,null,null,null,null,,180,200,260,200,36000,52000,"[1,2]"
,canvas-keyboard-response,325,304280,0.0-6.0-1.53,65,,,,,clear_screen,null,null,,,catch,l,sh,sw,260,215,180,147,211,178,trueblood,null,null,null,null,null,null,null,null,null,null,null,,180,200,260,200,36000,52000,"[1,2]"
,canvas-keyboard-response,326,305616,0.0-6.0-2.53,65,,,,,rectangles,null,null,,,catch,l,sh,sw,260,215,180,147,211,178,trueblood,null,null,null,null,null,null,null,null,null,null,null,,180,200,260,200,36000,52000,"[1,2]"
,canvas-keyboard-response,327,305775,0.0-6.0-3.53,65,,,,,clear_screen,null,null,,,catch,l,sh,sw,260,215,180,147,211,178,trueblood,null,null,null,null,null,null,null,null,null,null,null,,180,200,260,200,36000,52000,"[1,2]"
,canvas-keyboard-response,328,306603,0.0-6.0-4.53,65,,,,,make choice,820,1,,,catch,l,sh,sw,260,215,180,147,211,178,trueblood,null,null,null,null,null,null,null,null,null,null,null,,180,200,260,200,36000,52000,"[1,2]"
,canvas-keyboard-response,329,306764,0.0-6.0-5.53,65,,,,,clear_screen,null,null,,,catch,l,sh,sw,260,215,180,147,211,178,trueblood,null,null,null,null,null,null,null,null,null,null,null,,180,200,260,200,36000,52000,"[1,2]"
,canvas-keyboard-response,330,306965,0.0-6.0-0.54,65,,,,,pre trial waiting period,null,null,,,catch,l,sw,sh,214,259,207,193,190,168,trueblood,null,null,null,null,null,null,null,null,null,null,null,,180,200,260,200,36000,52000,"[1,2]"
,canvas-keyboard-response,331,307126,0.0-6.0-1.54,65,,,,,clear_screen,null,null,,,catch,l,sw,sh,214,259,207,193,190,168,trueblood,null,null,null,null,null,null,null,null,null,null,null,,180,200,260,200,36000,52000,"[1,2]"
,canvas-keyboard-response,332,308464,0.0-6.0-2.54,65,,,,,rectangles,null,null,,,catch,l,sw,sh,214,259,207,193,190,168,trueblood,null,null,null,null,null,null,null,null,null,null,null,,180,200,260,200,36000,52000,"[1,2]"
,canvas-keyboard-response,333,308627,0.0-6.0-3.54,65,,,,,clear_screen,null,null,,,catch,l,sw,sh,214,259,207,193,190,168,trueblood,null,null,null,null,null,null,null,null,null,null,null,,180,200,260,200,36000,52000,"[1,2]"
,canvas-keyboard-response,334,309733,0.0-6.0-4.54,65,,,,,make choice,1098,1,,,catch,l,sw,sh,214,259,207,193,190,168,trueblood,null,null,null,null,null,null,null,null,null,null,null,,180,200,260,200,36000,52000,"[1,2]"
,canvas-keyboard-response,335,309893,0.0-6.0-5.54,65,,,,,clear_screen,null,null,,,catch,l,sw,sh,214,259,207,193,190,168,trueblood,null,null,null,null,null,null,null,null,null,null,null,,180,200,260,200,36000,52000,"[1,2]"
,canvas-keyboard-response,336,310095,0.0-6.0-0.55,65,,,,,pre trial waiting period,null,null,,,critical,d,c,t,162.6685,237.1485,240,164,164,240,trueblood,0.02,h,164,240,240,164,162.6685,237.1485,39360,39360,38576.5967,dc,null,null,null,null,null,null,"[1,2]"
,canvas-keyboard-response,337,310255,0.0-6.0-1.55,65,,,,,clear_screen,null,null,,,critical,d,c,t,162.6685,237.1485,240,164,164,240,trueblood,0.02,h,164,240,240,164,162.6685,237.1485,39360,39360,38576.5967,dc,null,null,null,null,null,null,"[1,2]"
,canvas-keyboard-response,338,311592,0.0-6.0-2.55,65,,,,,rectangles,null,null,,,critical,d,c,t,162.6685,237.1485,240,164,164,240,trueblood,0.02,h,164,240,240,164,162.6685,237.1485,39360,39360,38576.5967,dc,null,null,null,null,null,null,"[1,2]"
,canvas-keyboard-response,339,311750,0.0-6.0-3.55,65,,,,,clear_screen,null,null,,,critical,d,c,t,162.6685,237.1485,240,164,164,240,trueblood,0.02,h,164,240,240,164,162.6685,237.1485,39360,39360,38576.5967,dc,null,null,null,null,null,null,"[1,2]"
,canvas-keyboard-response,340,312604,0.0-6.0-4.55,65,,,,,make choice,846,2,,,critical,d,c,t,162.6685,237.1485,240,164,164,240,trueblood,0.02,h,164,240,240,164,162.6685,237.1485,39360,39360,38576.5967,dc,null,null,null,null,null,null,"[1,2]"
,canvas-keyboard-response,341,312763,0.0-6.0-5.55,65,,,,,clear_screen,null,null,,,critical,d,c,t,162.6685,237.1485,240,164,164,240,trueblood,0.02,h,164,240,240,164,162.6685,237.1485,39360,39360,38576.5967,dc,null,null,null,null,null,null,"[1,2]"
,canvas-keyboard-response,342,312967,0.0-6.0-0.56,65,,,,,pre trial waiting period,null,null,,,catch,sh,sw,l,218,199,162,195,160,249,spektor,null,null,null,null,null,null,null,null,null,null,null,,180,200,260,200,36000,52000,"[1,3]"
,canvas-keyboard-response,343,313126,0.0-6.0-1.56,65,,,,,clear_screen,null,null,,,catch,sh,sw,l,218,199,162,195,160,249,spektor,null,null,null,null,null,null,null,null,null,null,null,,180,200,260,200,36000,52000,"[1,3]"
,canvas-keyboard-response,344,314458,0.0-6.0-2.56,65,,,,,rectangles,null,null,,,catch,sh,sw,l,218,199,162,195,160,249,spektor,null,null,null,null,null,null,null,null,null,null,null,,180,200,260,200,36000,52000,"[1,3]"
,canvas-keyboard-response,345,314617,0.0-6.0-3.56,65,,,,,clear_screen,null,null,,,catch,sh,sw,l,218,199,162,195,160,249,spektor,null,null,null,null,null,null,null,null,null,null,null,,180,200,260,200,36000,52000,"[1,3]"
,canvas-keyboard-response,346,315852,0.0-6.0-4.56,65,,,,,make choice,1225,1,,,catch,sh,sw,l,218,199,162,195,160,249,spektor,null,null,null,null,null,null,null,null,null,null,null,,180,200,260,200,36000,52000,"[1,3]"
,canvas-keyboard-response,347,316011,0.0-6.0-5.56,65,,,,,clear_screen,null,null,,,catch,sh,sw,l,218,199,162,195,160,249,spektor,null,null,null,null,null,null,null,null,null,null,null,,180,200,260,200,36000,52000,"[1,3]"
,canvas-keyboard-response,348,316212,0.0-6.0-0.57,65,,,,,pre trial waiting period,null,null,,,critical,t,d,c,240,164,237.1485,162.6685,164,240,trueblood,0.02,w,240,164,164,240,237.1485,162.6685,39360,39360,38576.5967,td,null,null,null,null,null,null,"[1,2]"
,canvas-keyboard-response,349,316372,0.0-6.0-1.57,65,,,,,clear_screen,null,null,,,critical,t,d,c,240,164,237.1485,162.6685,164,240,trueblood,0.02,w,240,164,164,240,237.1485,162.6685,39360,39360,38576.5967,td,null,null,null,null,null,null,"[1,2]"
,canvas-keyboard-response,350,317706,0.0-6.0-2.57,65,,,,,rectangles,null,null,,,critical,t,d,c,240,164,237.1485,162.6685,164,240,trueblood,0.02,w,240,164,164,240,237.1485,162.6685,39360,39360,38576.5967,td,null,null,null,null,null,null,"[1,2]"
,canvas-keyboard-response,351,317865,0.0-6.0-3.57,65,,,,,clear_screen,null,null,,,critical,t,d,c,240,164,237.1485,162.6685,164,240,trueblood,0.02,w,240,164,164,240,237.1485,162.6685,39360,39360,38576.5967,td,null,null,null,null,null,null,"[1,2]"
,canvas-keyboard-response,352,318972,0.0-6.0-4.57,65,,,,,make choice,1097,2,,,critical,t,d,c,240,164,237.1485,162.6685,164,240,trueblood,0.02,w,240,164,164,240,237.1485,162.6685,39360,39360,38576.5967,td,null,null,null,null,null,null,"[1,2]"
,canvas-keyboard-response,353,319130,0.0-6.0-5.57,65,,,,,clear_screen,null,null,,,critical,t,d,c,240,164,237.1485,162.6685,164,240,trueblood,0.02,w,240,164,164,240,237.1485,162.6685,39360,39360,38576.5967,td,null,null,null,null,null,null,"[1,2]"
,canvas-keyboard-response,354,319332,0.0-6.0-0.58,65,,,,,pre trial waiting period,null,null,,,catch,l,sh,sw,249,196,160,154,178,181,trueblood,null,null,null,null,null,null,null,null,null,null,null,,180,200,260,200,36000,52000,"[1,3]"
,canvas-keyboard-response,355,319493,0.0-6.0-1.58,65,,,,,clear_screen,null,null,,,catch,l,sh,sw,249,196,160,154,178,181,trueblood,null,null,null,null,null,null,null,null,null,null,null,,180,200,260,200,36000,52000,"[1,3]"
,canvas-keyboard-response,356,320828,0.0-6.0-2.58,65,,,,,rectangles,null,null,,,catch,l,sh,sw,249,196,160,154,178,181,trueblood,null,null,null,null,null,null,null,null,null,null,null,,180,200,260,200,36000,52000,"[1,3]"
,canvas-keyboard-response,357,320987,0.0-6.0-3.58,65,,,,,clear_screen,null,null,,,catch,l,sh,sw,249,196,160,154,178,181,trueblood,null,null,null,null,null,null,null,null,null,null,null,,180,200,260,200,36000,52000,"[1,3]"
,canvas-keyboard-response,358,321902,0.0-6.0-4.58,65,,,,,make choice,903,1,,,catch,l,sh,sw,249,196,160,154,178,181,trueblood,null,null,null,null,null,null,null,null,null,null,null,,180,200,260,200,36000,52000,"[1,3]"
,canvas-keyboard-response,359,322059,0.0-6.0-5.58,65,,,,,clear_screen,null,null,,,catch,l,sh,sw,249,196,160,154,178,181,trueblood,null,null,null,null,null,null,null,null,null,null,null,,180,200,260,200,36000,52000,"[1,3]"
,canvas-keyboard-response,360,322260,0.0-6.0-0.59,65,,,,,pre trial waiting period,null,null,,,critical,c,d,t,240,164,162.6685,237.1485,164,240,trueblood,0.02,h,164,240,240,164,162.6685,237.1485,39360,39360,38576.5967,td,null,null,null,null,null,null,"[3,2]"
,canvas-keyboard-response,361,322421,0.0-6.0-1.59,65,,,,,clear_screen,null,null,,,critical,c,d,t,240,164,162.6685,237.1485,164,240,trueblood,0.02,h,164,240,240,164,162.6685,237.1485,39360,39360,38576.5967,td,null,null,null,null,null,null,"[3,2]"
,canvas-keyboard-response,362,323758,0.0-6.0-2.59,65,,,,,rectangles,null,null,,,critical,c,d,t,240,164,162.6685,237.1485,164,240,trueblood,0.02,h,164,240,240,164,162.6685,237.1485,39360,39360,38576.5967,td,null,null,null,null,null,null,"[3,2]"
,canvas-keyboard-response,363,323916,0.0-6.0-3.59,65,,,,,clear_screen,null,null,,,critical,c,d,t,240,164,162.6685,237.1485,164,240,trueblood,0.02,h,164,240,240,164,162.6685,237.1485,39360,39360,38576.5967,td,null,null,null,null,null,null,"[3,2]"
,canvas-keyboard-response,364,325812,0.0-6.0-4.59,65,,,,,make choice,1887,3,,,critical,c,d,t,240,164,162.6685,237.1485,164,240,trueblood,0.02,h,164,240,240,164,162.6685,237.1485,39360,39360,38576.5967,td,null,null,null,null,null,null,"[3,2]"
,canvas-keyboard-response,365,325970,0.0-6.0-5.59,65,,,,,clear_screen,null,null,,,critical,c,d,t,240,164,162.6685,237.1485,164,240,trueblood,0.02,h,164,240,240,164,162.6685,237.1485,39360,39360,38576.5967,td,null,null,null,null,null,null,"[3,2]"
,canvas-keyboard-response,366,326173,0.0-6.0-0.60,65,,,,,pre trial waiting period,null,null,,,critical,d,c,t,240,164,164,240,240,164,trueblood,0,w,240,164,164,240,240,164,39360,39360,39360,dc,null,null,null,null,null,null,"[1,2]"
,canvas-keyboard-response,367,326330,0.0-6.0-1.60,65,,,,,clear_screen,null,null,,,critical,d,c,t,240,164,164,240,240,164,trueblood,0,w,240,164,164,240,240,164,39360,39360,39360,dc,null,null,null,null,null,null,"[1,2]"
,canvas-keyboard-response,368,327665,0.0-6.0-2.60,65,,,,,rectangles,null,null,,,critical,d,c,t,240,164,164,240,240,164,trueblood,0,w,240,164,164,240,240,164,39360,39360,39360,dc,null,null,null,null,null,null,"[1,2]"
,canvas-keyboard-response,369,327826,0.0-6.0-3.60,65,,,,,clear_screen,null,null,,,critical,d,c,t,240,164,164,240,240,164,trueblood,0,w,240,164,164,240,240,164,39360,39360,39360,dc,null,null,null,null,null,null,"[1,2]"
,canvas-keyboard-response,370,330419,0.0-6.0-4.60,65,,,,,make choice,2581,2,,,critical,d,c,t,240,164,164,240,240,164,trueblood,0,w,240,164,164,240,240,164,39360,39360,39360,dc,null,null,null,null,null,null,"[1,2]"
,canvas-keyboard-response,371,330580,0.0-6.0-5.60,65,,,,,clear_screen,null,null,,,critical,d,c,t,240,164,164,240,240,164,trueblood,0,w,240,164,164,240,240,164,39360,39360,39360,dc,null,null,null,null,null,null,"[1,2]"
,canvas-keyboard-response,372,330781,0.0-6.0-0.61,65,,,,,pre trial waiting period,null,null,,,catch,sh,l,sw,238,144,230,215,190,206,spektor,null,null,null,null,null,null,null,null,null,null,null,,180,200,260,200,36000,52000,"[1,2]"
,canvas-keyboard-response,373,330940,0.0-6.0-1.61,65,,,,,clear_screen,null,null,,,catch,sh,l,sw,238,144,230,215,190,206,spektor,null,null,null,null,null,null,null,null,null,null,null,,180,200,260,200,36000,52000,"[1,2]"
,canvas-keyboard-response,374,332278,0.0-6.0-2.61,65,,,,,rectangles,null,null,,,catch,sh,l,sw,238,144,230,215,190,206,spektor,null,null,null,null,null,null,null,null,null,null,null,,180,200,260,200,36000,52000,"[1,2]"
,canvas-keyboard-response,375,332437,0.0-6.0-3.61,65,,,,,clear_screen,null,null,,,catch,sh,l,sw,238,144,230,215,190,206,spektor,null,null,null,null,null,null,null,null,null,null,null,,180,200,260,200,36000,52000,"[1,2]"
,canvas-keyboard-response,376,333596,0.0-6.0-4.61,65,,,,,make choice,1151,2,,,catch,sh,l,sw,238,144,230,215,190,206,spektor,null,null,null,null,null,null,null,null,null,null,null,,180,200,260,200,36000,52000,"[1,2]"
,canvas-keyboard-response,377,333754,0.0-6.0-5.61,65,,,,,clear_screen,null,null,,,catch,sh,l,sw,238,144,230,215,190,206,spektor,null,null,null,null,null,null,null,null,null,null,null,,180,200,260,200,36000,52000,"[1,2]"
,canvas-keyboard-response,378,333955,0.0-6.0-0.62,65,,,,,pre trial waiting period,null,null,,,critical,c,t,d,240,164,164,240,164,240,trueblood,0,h,164,240,240,164,164,240,39360,39360,39360,td,null,null,null,null,null,null,"[2,3]"
,canvas-keyboard-response,379,334115,0.0-6.0-1.62,65,,,,,clear_screen,null,null,,,critical,c,t,d,240,164,164,240,164,240,trueblood,0,h,164,240,240,164,164,240,39360,39360,39360,td,null,null,null,null,null,null,"[2,3]"
,canvas-keyboard-response,380,335449,0.0-6.0-2.62,65,,,,,rectangles,null,null,,,critical,c,t,d,240,164,164,240,164,240,trueblood,0,h,164,240,240,164,164,240,39360,39360,39360,td,null,null,null,null,null,null,"[2,3]"
,canvas-keyboard-response,381,335610,0.0-6.0-3.62,65,,,,,clear_screen,null,null,,,critical,c,t,d,240,164,164,240,164,240,trueblood,0,h,164,240,240,164,164,240,39360,39360,39360,td,null,null,null,null,null,null,"[2,3]"
,canvas-keyboard-response,382,338252,0.0-6.0-4.62,65,,,,,make choice,2628,2,,,critical,c,t,d,240,164,164,240,164,240,trueblood,0,h,164,240,240,164,164,240,39360,39360,39360,td,null,null,null,null,null,null,"[2,3]"
,canvas-keyboard-response,383,338411,0.0-6.0-5.62,65,,,,,clear_screen,null,null,,,critical,c,t,d,240,164,164,240,164,240,trueblood,0,h,164,240,240,164,164,240,39360,39360,39360,td,null,null,null,null,null,null,"[2,3]"
,canvas-keyboard-response,384,338612,0.0-6.0-0.63,65,,,,,pre trial waiting period,null,null,,,critical,c,d,t,164,240,220.0396,154.6796,240,164,trueblood,0.14,w,240,164,164,240,220.0396,154.6796,39360,39360,34035.6388,tc,null,null,null,null,null,null,"[3,1]"
,canvas-keyboard-response,385,338775,0.0-6.0-1.63,65,,,,,clear_screen,null,null,,,critical,c,d,t,164,240,220.0396,154.6796,240,164,trueblood,0.14,w,240,164,164,240,220.0396,154.6796,39360,39360,34035.6388,tc,null,null,null,null,null,null,"[3,1]"
,canvas-keyboard-response,386,340108,0.0-6.0-2.63,65,,,,,rectangles,null,null,,,critical,c,d,t,164,240,220.0396,154.6796,240,164,trueblood,0.14,w,240,164,164,240,220.0396,154.6796,39360,39360,34035.6388,tc,null,null,null,null,null,null,"[3,1]"
,canvas-keyboard-response,387,340267,0.0-6.0-3.63,65,,,,,clear_screen,null,null,,,critical,c,d,t,164,240,220.0396,154.6796,240,164,trueblood,0.14,w,240,164,164,240,220.0396,154.6796,39360,39360,34035.6388,tc,null,null,null,null,null,null,"[3,1]"
,canvas-keyboard-response,388,341372,0.0-6.0-4.63,65,,,,,make choice,1097,3,,,critical,c,d,t,164,240,220.0396,154.6796,240,164,trueblood,0.14,w,240,164,164,240,220.0396,154.6796,39360,39360,34035.6388,tc,null,null,null,null,null,null,"[3,1]"
,canvas-keyboard-response,389,341531,0.0-6.0-5.63,65,,,,,clear_screen,null,null,,,critical,c,d,t,164,240,220.0396,154.6796,240,164,trueblood,0.14,w,240,164,164,240,220.0396,154.6796,39360,39360,34035.6388,tc,null,null,null,null,null,null,"[3,1]"
,canvas-keyboard-response,390,341732,0.0-6.0-0.64,65,,,,,pre trial waiting period,null,null,,,critical,t,d,c,164,240,160.6713,232.8713,240,164,trueblood,0.05,h,164,240,240,164,160.6713,232.8713,39360,39360,37415.7294,tc,null,null,null,null,null,null,"[1,3]"
,canvas-keyboard-response,391,341890,0.0-6.0-1.64,65,,,,,clear_screen,null,null,,,critical,t,d,c,164,240,160.6713,232.8713,240,164,trueblood,0.05,h,164,240,240,164,160.6713,232.8713,39360,39360,37415.7294,tc,null,null,null,null,null,null,"[1,3]"
,canvas-keyboard-response,392,343231,0.0-6.0-2.64,65,,,,,rectangles,null,null,,,critical,t,d,c,164,240,160.6713,232.8713,240,164,trueblood,0.05,h,164,240,240,164,160.6713,232.8713,39360,39360,37415.7294,tc,null,null,null,null,null,null,"[1,3]"
,canvas-keyboard-response,393,343392,0.0-6.0-3.64,65,,,,,clear_screen,null,null,,,critical,t,d,c,164,240,160.6713,232.8713,240,164,trueblood,0.05,h,164,240,240,164,160.6713,232.8713,39360,39360,37415.7294,tc,null,null,null,null,null,null,"[1,3]"
,canvas-keyboard-response,394,344323,0.0-6.0-4.64,65,,,,,make choice,921,3,,,critical,t,d,c,164,240,160.6713,232.8713,240,164,trueblood,0.05,h,164,240,240,164,160.6713,232.8713,39360,39360,37415.7294,tc,null,null,null,null,null,null,"[1,3]"
,canvas-keyboard-response,395,344482,0.0-6.0-5.64,65,,,,,clear_screen,null,null,,,critical,t,d,c,164,240,160.6713,232.8713,240,164,trueblood,0.05,h,164,240,240,164,160.6713,232.8713,39360,39360,37415.7294,tc,null,null,null,null,null,null,"[1,3]"
,canvas-keyboard-response,396,344685,0.0-6.0-0.65,65,,,,,pre trial waiting period,null,null,,,critical,c,d,t,164,240,232.8713,160.6713,240,164,trueblood,0.05,w,240,164,164,240,232.8713,160.6713,39360,39360,37415.7294,dc,null,null,null,null,null,null,"[2,1]"
,canvas-keyboard-response,397,344850,0.0-6.0-1.65,65,,,,,clear_screen,null,null,,,critical,c,d,t,164,240,232.8713,160.6713,240,164,trueblood,0.05,w,240,164,164,240,232.8713,160.6713,39360,39360,37415.7294,dc,null,null,null,null,null,null,"[2,1]"
,canvas-keyboard-response,398,346188,0.0-6.0-2.65,65,,,,,rectangles,null,null,,,critical,c,d,t,164,240,232.8713,160.6713,240,164,trueblood,0.05,w,240,164,164,240,232.8713,160.6713,39360,39360,37415.7294,dc,null,null,null,null,null,null,"[2,1]"
,canvas-keyboard-response,399,346346,0.0-6.0-3.65,65,,,,,clear_screen,null,null,,,critical,c,d,t,164,240,232.8713,160.6713,240,164,trueblood,0.05,w,240,164,164,240,232.8713,160.6713,39360,39360,37415.7294,dc,null,null,null,null,null,null,"[2,1]"
,canvas-keyboard-response,400,347445,0.0-6.0-4.65,65,,,,,make choice,1086,2,,,critical,c,d,t,164,240,232.8713,160.6713,240,164,trueblood,0.05,w,240,164,164,240,232.8713,160.6713,39360,39360,37415.7294,dc,null,null,null,null,null,null,"[2,1]"
,canvas-keyboard-response,401,347605,0.0-6.0-5.65,65,,,,,clear_screen,null,null,,,critical,c,d,t,164,240,232.8713,160.6713,240,164,trueblood,0.05,w,240,164,164,240,232.8713,160.6713,39360,39360,37415.7294,dc,null,null,null,null,null,null,"[2,1]"
,canvas-keyboard-response,402,347806,0.0-6.0-0.66,65,,,,,pre trial waiting period,null,null,,,critical,t,c,d,240,164,164,240,220.0396,154.6796,spektor,0.14,w,240,164,164,240,220.0396,154.6796,39360,39360,34035.6388,tc,null,null,null,null,null,null,"[1,2]"
,canvas-keyboard-response,403,347966,0.0-6.0-1.66,65,,,,,clear_screen,null,null,,,critical,t,c,d,240,164,164,240,220.0396,154.6796,spektor,0.14,w,240,164,164,240,220.0396,154.6796,39360,39360,34035.6388,tc,null,null,null,null,null,null,"[1,2]"
,canvas-keyboard-response,404,349304,0.0-6.0-2.66,65,,,,,rectangles,null,null,,,critical,t,c,d,240,164,164,240,220.0396,154.6796,spektor,0.14,w,240,164,164,240,220.0396,154.6796,39360,39360,34035.6388,tc,null,null,null,null,null,null,"[1,2]"
,canvas-keyboard-response,405,349467,0.0-6.0-3.66,65,,,,,clear_screen,null,null,,,critical,t,c,d,240,164,164,240,220.0396,154.6796,spektor,0.14,w,240,164,164,240,220.0396,154.6796,39360,39360,34035.6388,tc,null,null,null,null,null,null,"[1,2]"
,canvas-keyboard-response,406,350316,0.0-6.0-4.66,65,,,,,make choice,840,2,,,critical,t,c,d,240,164,164,240,220.0396,154.6796,spektor,0.14,w,240,164,164,240,220.0396,154.6796,39360,39360,34035.6388,tc,null,null,null,null,null,null,"[1,2]"
,canvas-keyboard-response,407,350473,0.0-6.0-5.66,65,,,,,clear_screen,null,null,,,critical,t,c,d,240,164,164,240,220.0396,154.6796,spektor,0.14,w,240,164,164,240,220.0396,154.6796,39360,39360,34035.6388,tc,null,null,null,null,null,null,"[1,2]"
,canvas-keyboard-response,408,350674,0.0-6.0-0.67,65,,,,,pre trial waiting period,null,null,,,catch,l,sh,sw,177,287,177,204,195,197,trueblood,null,null,null,null,null,null,null,null,null,null,null,,180,200,260,200,36000,52000,"[1,3]"
,canvas-keyboard-response,409,350833,0.0-6.0-1.67,65,,,,,clear_screen,null,null,,,catch,l,sh,sw,177,287,177,204,195,197,trueblood,null,null,null,null,null,null,null,null,null,null,null,,180,200,260,200,36000,52000,"[1,3]"
,canvas-keyboard-response,410,352170,0.0-6.0-2.67,65,,,,,rectangles,null,null,,,catch,l,sh,sw,177,287,177,204,195,197,trueblood,null,null,null,null,null,null,null,null,null,null,null,,180,200,260,200,36000,52000,"[1,3]"
,canvas-keyboard-response,411,352332,0.0-6.0-3.67,65,,,,,clear_screen,null,null,,,catch,l,sh,sw,177,287,177,204,195,197,trueblood,null,null,null,null,null,null,null,null,null,null,null,,180,200,260,200,36000,52000,"[1,3]"
,canvas-keyboard-response,412,353355,0.0-6.0-4.67,65,,,,,make choice,1015,1,,,catch,l,sh,sw,177,287,177,204,195,197,trueblood,null,null,null,null,null,null,null,null,null,null,null,,180,200,260,200,36000,52000,"[1,3]"
,canvas-keyboard-response,413,353515,0.0-6.0-5.67,65,,,,,clear_screen,null,null,,,catch,l,sh,sw,177,287,177,204,195,197,trueblood,null,null,null,null,null,null,null,null,null,null,null,,180,200,260,200,36000,52000,"[1,3]"
,canvas-keyboard-response,414,353716,0.0-6.0-0.68,65,,,,,pre trial waiting period,null,null,,,critical,c,t,d,240,164,164,240,164,240,spektor,0,h,164,240,240,164,164,240,39360,39360,39360,tc,null,null,null,null,null,null,"[2,1]"
,canvas-keyboard-response,415,353876,0.0-6.0-1.68,65,,,,,clear_screen,null,null,,,critical,c,t,d,240,164,164,240,164,240,spektor,0,h,164,240,240,164,164,240,39360,39360,39360,tc,null,null,null,null,null,null,"[2,1]"
,canvas-keyboard-response,416,355211,0.0-6.0-2.68,65,,,,,rectangles,null,null,,,critical,c,t,d,240,164,164,240,164,240,spektor,0,h,164,240,240,164,164,240,39360,39360,39360,tc,null,null,null,null,null,null,"[2,1]"
,canvas-keyboard-response,417,355369,0.0-6.0-3.68,65,,,,,clear_screen,null,null,,,critical,c,t,d,240,164,164,240,164,240,spektor,0,h,164,240,240,164,164,240,39360,39360,39360,tc,null,null,null,null,null,null,"[2,1]"
,canvas-keyboard-response,418,356692,0.0-6.0-4.68,65,,,,,make choice,1319,2,,,critical,c,t,d,240,164,164,240,164,240,spektor,0,h,164,240,240,164,164,240,39360,39360,39360,tc,null,null,null,null,null,null,"[2,1]"
,canvas-keyboard-response,419,356851,0.0-6.0-5.68,65,,,,,clear_screen,null,null,,,critical,c,t,d,240,164,164,240,164,240,spektor,0,h,164,240,240,164,164,240,39360,39360,39360,tc,null,null,null,null,null,null,"[2,1]"
,canvas-keyboard-response,420,357052,0.0-6.0-0.69,65,,,,,pre trial waiting period,null,null,,,critical,t,c,d,164,240,240,164,154.6796,220.0396,trueblood,0.14,h,164,240,240,164,154.6796,220.0396,39360,39360,34035.6388,dc,null,null,null,null,null,null,"[3,2]"
,canvas-keyboard-response,421,357213,0.0-6.0-1.69,65,,,,,clear_screen,null,null,,,critical,t,c,d,164,240,240,164,154.6796,220.0396,trueblood,0.14,h,164,240,240,164,154.6796,220.0396,39360,39360,34035.6388,dc,null,null,null,null,null,null,"[3,2]"
,canvas-keyboard-response,422,358548,0.0-6.0-2.69,65,,,,,rectangles,null,null,,,critical,t,c,d,164,240,240,164,154.6796,220.0396,trueblood,0.14,h,164,240,240,164,154.6796,220.0396,39360,39360,34035.6388,dc,null,null,null,null,null,null,"[3,2]"
,canvas-keyboard-response,423,358710,0.0-6.0-3.69,65,,,,,clear_screen,null,null,,,critical,t,c,d,164,240,240,164,154.6796,220.0396,trueblood,0.14,h,164,240,240,164,154.6796,220.0396,39360,39360,34035.6388,dc,null,null,null,null,null,null,"[3,2]"
