"success","trial_type","trial_index","time_elapsed","internal_node_id","sub_n","timeout","failed_images","failed_audio","failed_video","screen_id","rt","response","stimulus","view_history","trial","r1","r2","r3","w1","h1","w2","h2","w3","h3","display","tdd","tdo","tw","th","cw","ch","dw","dh","ta","ca","da","probe","csls","csss","clls","clss","sa","la","probe_rects"
"true","fullscreen","0","2567","0.0-0.0","46","","","","","","","","","","","","","","","","","","","","","","","","","","","","","","","","","","","","","","",""
"true","preload","1","2586","0.0-1.0","46","false","[]","[]","[]","img preload","","","","","","","","","","","","","","","","","","","","","","","","","","","","","","","","","",""
"","survey-html-form","2","14683","0.0-2.0","46","","","","","enter-sub-number","12089","{""response"":""46""}","","","","","","","","","","","","","","","","","","","","","","","","","","","","","","","",""
"","image-button-response","3","20843","0.0-3.0","46","","","","","","6094","0","consent.png","","","","","","","","","","","","","","","","","","","","","","","","","","","","","","",""
"","html-button-response","4","29188","0.0-4.0","46","","","","","intro mssg","8340","0","<div style= ""font-size:25px;"" <p> <strong> Welcome! </strong><br> <p style=""color:#8B0000; font-size:25px;""><strong> Please do NOT exit full screen until you are done with the experiment. </strong> </p><p style=""font-size:25px;color:#8B0000;""> <strong> Your data will be lost <br> if you try to go back or refresh the page after the experiment starts. Feel free to click ""previous"" during the instructions, however.</strong> </p><br><p> <strong> Thanks in advance for your contribution to our research! </strong></p>","","","","","","","","","","","","","","","","","","","","","","","","","","","","","","",""
"","instructions","5","71421","0.0-5.0","46","","","","","instructions","42230","","","[{""page_index"":0,""viewing_time"":7325},{""page_index"":1,""viewing_time"":9567},{""page_index"":2,""viewing_time"":3193},{""page_index"":3,""viewing_time"":10190},{""page_index"":4,""viewing_time"":5098},{""page_index"":5,""viewing_time"":2824},{""page_index"":6,""viewing_time"":2752},{""page_index"":7,""viewing_time"":1280}]","","","","","","","","","","","","","","","","","","","","","","","","","","","","","",""
"","canvas-keyboard-response","6","71625","0.0-6.0-0.0","46","","","","","pre trial waiting period","null","null","","","critical","t","c","d","164","240","240","164","158.0083","227.1683","spektor","0.09","h","164","240","240","164","158.0083","227.1683","39360","39360","35894.4834","dc","null","null","null","null","null","null","[3,2]"
"","canvas-keyboard-response","7","71788","0.0-6.0-1.0","46","","","","","clear_screen","null","null","","","critical","t","c","d","164","240","240","164","158.0083","227.1683","spektor","0.09","h","164","240","240","164","158.0083","227.1683","39360","39360","35894.4834","dc","null","null","null","null","null","null","[3,2]"
"","canvas-keyboard-response","8","73127","0.0-6.0-2.0","46","","","","","rectangles","null","null","","","critical","t","c","d","164","240","240","164","158.0083","227.1683","spektor","0.09","h","164","240","240","164","158.0083","227.1683","39360","39360","35894.4834","dc","null","null","null","null","null","null","[3,2]"
"","canvas-keyboard-response","9","73287","0.0-6.0-3.0","46","","","","","clear_screen","null","null","","","critical","t","c","d","164","240","240","164","158.0083","227.1683","spektor","0.09","h","164","240","240","164","158.0083","227.1683","39360","39360","35894.4834","dc","null","null","null","null","null","null","[3,2]"
"","canvas-keyboard-response","10","76685","0.0-6.0-4.0","46","","","","","make choice","3381","2","","","critical","t","c","d","164","240","240","164","158.0083","227.1683","spektor","0.09","h","164","240","240","164","158.0083","227.1683","39360","39360","35894.4834","dc","null","null","null","null","null","null","[3,2]"
"","canvas-keyboard-response","11","76845","0.0-6.0-5.0","46","","","","","clear_screen","null","null","","","critical","t","c","d","164","240","240","164","158.0083","227.1683","spektor","0.09","h","164","240","240","164","158.0083","227.1683","39360","39360","35894.4834","dc","null","null","null","null","null","null","[3,2]"
"","canvas-keyboard-response","12","77049","0.0-6.0-0.1","46","","","","","pre trial waiting period","null","null","","","critical","t","d","c","164","240","158.0083","227.1683","240","164","trueblood","0.09","h","164","240","240","164","158.0083","227.1683","39360","39360","35894.4834","td","null","null","null","null","null","null","[1,2]"
"","canvas-keyboard-response","13","77211","0.0-6.0-1.1","46","","","","","clear_screen","null","null","","","critical","t","d","c","164","240","158.0083","227.1683","240","164","trueblood","0.09","h","164","240","240","164","158.0083","227.1683","39360","39360","35894.4834","td","null","null","null","null","null","null","[1,2]"
"","canvas-keyboard-response","14","78548","0.0-6.0-2.1","46","","","","","rectangles","null","null","","","critical","t","d","c","164","240","158.0083","227.1683","240","164","trueblood","0.09","h","164","240","240","164","158.0083","227.1683","39360","39360","35894.4834","td","null","null","null","null","null","null","[1,2]"
"","canvas-keyboard-response","15","78706","0.0-6.0-3.1","46","","","","","clear_screen","null","null","","","critical","t","d","c","164","240","158.0083","227.1683","240","164","trueblood","0.09","h","164","240","240","164","158.0083","227.1683","39360","39360","35894.4834","td","null","null","null","null","null","null","[1,2]"
"","canvas-keyboard-response","16","80532","0.0-6.0-4.1","46","","","","","make choice","1812","1","","","critical","t","d","c","164","240","158.0083","227.1683","240","164","trueblood","0.09","h","164","240","240","164","158.0083","227.1683","39360","39360","35894.4834","td","null","null","null","null","null","null","[1,2]"
"","canvas-keyboard-response","17","80692","0.0-6.0-5.1","46","","","","","clear_screen","null","null","","","critical","t","d","c","164","240","158.0083","227.1683","240","164","trueblood","0.09","h","164","240","240","164","158.0083","227.1683","39360","39360","35894.4834","td","null","null","null","null","null","null","[1,2]"
"","canvas-keyboard-response","18","80894","0.0-6.0-0.2","46","","","","","pre trial waiting period","null","null","","","critical","c","t","d","164","240","240","164","240","164","trueblood","0","w","240","164","164","240","240","164","39360","39360","39360","dc","null","null","null","null","null","null","[3,1]"
"","canvas-keyboard-response","19","81058","0.0-6.0-1.2","46","","","","","clear_screen","null","null","","","critical","c","t","d","164","240","240","164","240","164","trueblood","0","w","240","164","164","240","240","164","39360","39360","39360","dc","null","null","null","null","null","null","[3,1]"
"","canvas-keyboard-response","20","82394","0.0-6.0-2.2","46","","","","","rectangles","null","null","","","critical","c","t","d","164","240","240","164","240","164","trueblood","0","w","240","164","164","240","240","164","39360","39360","39360","dc","null","null","null","null","null","null","[3,1]"
"","canvas-keyboard-response","21","82558","0.0-6.0-3.2","46","","","","","clear_screen","null","null","","","critical","c","t","d","164","240","240","164","240","164","trueblood","0","w","240","164","164","240","240","164","39360","39360","39360","dc","null","null","null","null","null","null","[3,1]"
"","canvas-keyboard-response","22","83868","0.0-6.0-4.2","46","","","","","make choice","1307","3","","","critical","c","t","d","164","240","240","164","240","164","trueblood","0","w","240","164","164","240","240","164","39360","39360","39360","dc","null","null","null","null","null","null","[3,1]"
"","canvas-keyboard-response","23","84032","0.0-6.0-5.2","46","","","","","clear_screen","null","null","","","critical","c","t","d","164","240","240","164","240","164","trueblood","0","w","240","164","164","240","240","164","39360","39360","39360","dc","null","null","null","null","null","null","[3,1]"
"","canvas-keyboard-response","24","84234","0.0-6.0-0.3","46","","","","","pre trial waiting period","null","null","","","critical","d","t","c","227.1683","158.0083","240","164","164","240","trueblood","0.09","w","240","164","164","240","227.1683","158.0083","39360","39360","35894.4834","td","null","null","null","null","null","null","[2,1]"
"","canvas-keyboard-response","25","84394","0.0-6.0-1.3","46","","","","","clear_screen","null","null","","","critical","d","t","c","227.1683","158.0083","240","164","164","240","trueblood","0.09","w","240","164","164","240","227.1683","158.0083","39360","39360","35894.4834","td","null","null","null","null","null","null","[2,1]"
"","canvas-keyboard-response","26","85730","0.0-6.0-2.3","46","","","","","rectangles","null","null","","","critical","d","t","c","227.1683","158.0083","240","164","164","240","trueblood","0.09","w","240","164","164","240","227.1683","158.0083","39360","39360","35894.4834","td","null","null","null","null","null","null","[2,1]"
"","canvas-keyboard-response","27","85892","0.0-6.0-3.3","46","","","","","clear_screen","null","null","","","critical","d","t","c","227.1683","158.0083","240","164","164","240","trueblood","0.09","w","240","164","164","240","227.1683","158.0083","39360","39360","35894.4834","td","null","null","null","null","null","null","[2,1]"
"","canvas-keyboard-response","28","86924","0.0-6.0-4.3","46","","","","","make choice","1022","2","","","critical","d","t","c","227.1683","158.0083","240","164","164","240","trueblood","0.09","w","240","164","164","240","227.1683","158.0083","39360","39360","35894.4834","td","null","null","null","null","null","null","[2,1]"
"","canvas-keyboard-response","29","87081","0.0-6.0-5.3","46","","","","","clear_screen","null","null","","","critical","d","t","c","227.1683","158.0083","240","164","164","240","trueblood","0.09","w","240","164","164","240","227.1683","158.0083","39360","39360","35894.4834","td","null","null","null","null","null","null","[2,1]"
"","canvas-keyboard-response","30","87283","0.0-6.0-0.4","46","","","","","pre trial waiting period","null","null","","","critical","c","t","d","164","240","240","164","232.8713","160.6713","spektor","0.05","w","240","164","164","240","232.8713","160.6713","39360","39360","37415.7294","td","null","null","null","null","null","null","[2,3]"
"","canvas-keyboard-response","31","87442","0.0-6.0-1.4","46","","","","","clear_screen","null","null","","","critical","c","t","d","164","240","240","164","232.8713","160.6713","spektor","0.05","w","240","164","164","240","232.8713","160.6713","39360","39360","37415.7294","td","null","null","null","null","null","null","[2,3]"
"","canvas-keyboard-response","32","88782","0.0-6.0-2.4","46","","","","","rectangles","null","null","","","critical","c","t","d","164","240","240","164","232.8713","160.6713","spektor","0.05","w","240","164","164","240","232.8713","160.6713","39360","39360","37415.7294","td","null","null","null","null","null","null","[2,3]"
"","canvas-keyboard-response","33","88944","0.0-6.0-3.4","46","","","","","clear_screen","null","null","","","critical","c","t","d","164","240","240","164","232.8713","160.6713","spektor","0.05","w","240","164","164","240","232.8713","160.6713","39360","39360","37415.7294","td","null","null","null","null","null","null","[2,3]"
"","canvas-keyboard-response","34","90556","0.0-6.0-4.4","46","","","","","make choice","1603","2","","","critical","c","t","d","164","240","240","164","232.8713","160.6713","spektor","0.05","w","240","164","164","240","232.8713","160.6713","39360","39360","37415.7294","td","null","null","null","null","null","null","[2,3]"
"","canvas-keyboard-response","35","90717","0.0-6.0-5.4","46","","","","","clear_screen","null","null","","","critical","c","t","d","164","240","240","164","232.8713","160.6713","spektor","0.05","w","240","164","164","240","232.8713","160.6713","39360","39360","37415.7294","td","null","null","null","null","null","null","[2,3]"
"","canvas-keyboard-response","36","90919","0.0-6.0-0.5","46","","","","","pre trial waiting period","null","null","","","catch","sh","sw","l","188","173","218","238","265","196","spektor","null","null","null","null","null","null","null","null","null","null","null","","180","200","260","200","36000","52000","[2,3]"
"","canvas-keyboard-response","37","91082","0.0-6.0-1.5","46","","","","","clear_screen","null","null","","","catch","sh","sw","l","188","173","218","238","265","196","spektor","null","null","null","null","null","null","null","null","null","null","null","","180","200","260","200","36000","52000","[2,3]"
"","canvas-keyboard-response","38","92422","0.0-6.0-2.5","46","","","","","rectangles","null","null","","","catch","sh","sw","l","188","173","218","238","265","196","spektor","null","null","null","null","null","null","null","null","null","null","null","","180","200","260","200","36000","52000","[2,3]"
"","canvas-keyboard-response","39","92584","0.0-6.0-3.5","46","","","","","clear_screen","null","null","","","catch","sh","sw","l","188","173","218","238","265","196","spektor","null","null","null","null","null","null","null","null","null","null","null","","180","200","260","200","36000","52000","[2,3]"
"","canvas-keyboard-response","40","93682","0.0-6.0-4.5","46","","","","","make choice","1091","3","","","catch","sh","sw","l","188","173","218","238","265","196","spektor","null","null","null","null","null","null","null","null","null","null","null","","180","200","260","200","36000","52000","[2,3]"
"","canvas-keyboard-response","41","93836","0.0-6.0-5.5","46","","","","","clear_screen","null","null","","","catch","sh","sw","l","188","173","218","238","265","196","spektor","null","null","null","null","null","null","null","null","null","null","null","","180","200","260","200","36000","52000","[2,3]"
"","canvas-keyboard-response","42","94037","0.0-6.0-0.6","46","","","","","pre trial waiting period","null","null","","","critical","c","t","d","164","240","240","164","237.1485","162.6685","spektor","0.02","w","240","164","164","240","237.1485","162.6685","39360","39360","38576.5967","tc","null","null","null","null","null","null","[2,1]"
"","canvas-keyboard-response","43","94200","0.0-6.0-1.6","46","","","","","clear_screen","null","null","","","critical","c","t","d","164","240","240","164","237.1485","162.6685","spektor","0.02","w","240","164","164","240","237.1485","162.6685","39360","39360","38576.5967","tc","null","null","null","null","null","null","[2,1]"
"","canvas-keyboard-response","44","95538","0.0-6.0-2.6","46","","","","","rectangles","null","null","","","critical","c","t","d","164","240","240","164","237.1485","162.6685","spektor","0.02","w","240","164","164","240","237.1485","162.6685","39360","39360","38576.5967","tc","null","null","null","null","null","null","[2,1]"
"","canvas-keyboard-response","45","95697","0.0-6.0-3.6","46","","","","","clear_screen","null","null","","","critical","c","t","d","164","240","240","164","237.1485","162.6685","spektor","0.02","w","240","164","164","240","237.1485","162.6685","39360","39360","38576.5967","tc","null","null","null","null","null","null","[2,1]"
"","canvas-keyboard-response","46","96787","0.0-6.0-4.6","46","","","","","make choice","1080","1","","","critical","c","t","d","164","240","240","164","237.1485","162.6685","spektor","0.02","w","240","164","164","240","237.1485","162.6685","39360","39360","38576.5967","tc","null","null","null","null","null","null","[2,1]"
"","canvas-keyboard-response","47","96952","0.0-6.0-5.6","46","","","","","clear_screen","null","null","","","critical","c","t","d","164","240","240","164","237.1485","162.6685","spektor","0.02","w","240","164","164","240","237.1485","162.6685","39360","39360","38576.5967","tc","null","null","null","null","null","null","[2,1]"
"","canvas-keyboard-response","48","97153","0.0-6.0-0.7","46","","","","","pre trial waiting period","null","null","","","critical","t","d","c","164","240","160.6713","232.8713","240","164","trueblood","0.05","h","164","240","240","164","160.6713","232.8713","39360","39360","37415.7294","tc","null","null","null","null","null","null","[1,3]"
"","canvas-keyboard-response","49","97316","0.0-6.0-1.7","46","","","","","clear_screen","null","null","","","critical","t","d","c","164","240","160.6713","232.8713","240","164","trueblood","0.05","h","164","240","240","164","160.6713","232.8713","39360","39360","37415.7294","tc","null","null","null","null","null","null","[1,3]"
"","canvas-keyboard-response","50","98651","0.0-6.0-2.7","46","","","","","rectangles","null","null","","","critical","t","d","c","164","240","160.6713","232.8713","240","164","trueblood","0.05","h","164","240","240","164","160.6713","232.8713","39360","39360","37415.7294","tc","null","null","null","null","null","null","[1,3]"
"","canvas-keyboard-response","51","98811","0.0-6.0-3.7","46","","","","","clear_screen","null","null","","","critical","t","d","c","164","240","160.6713","232.8713","240","164","trueblood","0.05","h","164","240","240","164","160.6713","232.8713","39360","39360","37415.7294","tc","null","null","null","null","null","null","[1,3]"
"","canvas-keyboard-response","52","100243","0.0-6.0-4.7","46","","","","","make choice","1420","3","","","critical","t","d","c","164","240","160.6713","232.8713","240","164","trueblood","0.05","h","164","240","240","164","160.6713","232.8713","39360","39360","37415.7294","tc","null","null","null","null","null","null","[1,3]"
"","canvas-keyboard-response","53","100403","0.0-6.0-5.7","46","","","","","clear_screen","null","null","","","critical","t","d","c","164","240","160.6713","232.8713","240","164","trueblood","0.05","h","164","240","240","164","160.6713","232.8713","39360","39360","37415.7294","tc","null","null","null","null","null","null","[1,3]"
"","canvas-keyboard-response","54","100604","0.0-6.0-0.8","46","","","","","pre trial waiting period","null","null","","","catch","sh","l","sw","177","193","211","288","147","207","spektor","null","null","null","null","null","null","null","null","null","null","null","","180","200","260","200","36000","52000","[1,2]"
"","canvas-keyboard-response","55","100767","0.0-6.0-1.8","46","","","","","clear_screen","null","null","","","catch","sh","l","sw","177","193","211","288","147","207","spektor","null","null","null","null","null","null","null","null","null","null","null","","180","200","260","200","36000","52000","[1,2]"
"","canvas-keyboard-response","56","102103","0.0-6.0-2.8","46","","","","","rectangles","null","null","","","catch","sh","l","sw","177","193","211","288","147","207","spektor","null","null","null","null","null","null","null","null","null","null","null","","180","200","260","200","36000","52000","[1,2]"
"","canvas-keyboard-response","57","102265","0.0-6.0-3.8","46","","","","","clear_screen","null","null","","","catch","sh","l","sw","177","193","211","288","147","207","spektor","null","null","null","null","null","null","null","null","null","null","null","","180","200","260","200","36000","52000","[1,2]"
"","canvas-keyboard-response","58","103516","0.0-6.0-4.8","46","","","","","make choice","1240","2","","","catch","sh","l","sw","177","193","211","288","147","207","spektor","null","null","null","null","null","null","null","null","null","null","null","","180","200","260","200","36000","52000","[1,2]"
"","canvas-keyboard-response","59","103675","0.0-6.0-5.8","46","","","","","clear_screen","null","null","","","catch","sh","l","sw","177","193","211","288","147","207","spektor","null","null","null","null","null","null","null","null","null","null","null","","180","200","260","200","36000","52000","[1,2]"
"","canvas-keyboard-response","60","103876","0.0-6.0-0.9","46","","","","","pre trial waiting period","null","null","","","critical","t","d","c","240","164","237.1485","162.6685","164","240","trueblood","0.02","w","240","164","164","240","237.1485","162.6685","39360","39360","38576.5967","dc","null","null","null","null","null","null","[2,3]"
"","canvas-keyboard-response","61","104037","0.0-6.0-1.9","46","","","","","clear_screen","null","null","","","critical","t","d","c","240","164","237.1485","162.6685","164","240","trueblood","0.02","w","240","164","164","240","237.1485","162.6685","39360","39360","38576.5967","dc","null","null","null","null","null","null","[2,3]"
"","canvas-keyboard-response","62","105377","0.0-6.0-2.9","46","","","","","rectangles","null","null","","","critical","t","d","c","240","164","237.1485","162.6685","164","240","trueblood","0.02","w","240","164","164","240","237.1485","162.6685","39360","39360","38576.5967","dc","null","null","null","null","null","null","[2,3]"
"","canvas-keyboard-response","63","105541","0.0-6.0-3.9","46","","","","","clear_screen","null","null","","","critical","t","d","c","240","164","237.1485","162.6685","164","240","trueblood","0.02","w","240","164","164","240","237.1485","162.6685","39360","39360","38576.5967","dc","null","null","null","null","null","null","[2,3]"
"","canvas-keyboard-response","64","106292","0.0-6.0-4.9","46","","","","","make choice","742","2","","","critical","t","d","c","240","164","237.1485","162.6685","164","240","trueblood","0.02","w","240","164","164","240","237.1485","162.6685","39360","39360","38576.5967","dc","null","null","null","null","null","null","[2,3]"
"","canvas-keyboard-response","65","106450","0.0-6.0-5.9","46","","","","","clear_screen","null","null","","","critical","t","d","c","240","164","237.1485","162.6685","164","240","trueblood","0.02","w","240","164","164","240","237.1485","162.6685","39360","39360","38576.5967","dc","null","null","null","null","null","null","[2,3]"
"","canvas-keyboard-response","66","106652","0.0-6.0-0.10","46","","","","","pre trial waiting period","null","null","","","catch","sh","l","sw","223","146","239","293","142","233","trueblood","null","null","null","null","null","null","null","null","null","null","null","","180","200","260","200","36000","52000","[2,3]"
"","canvas-keyboard-response","67","106813","0.0-6.0-1.10","46","","","","","clear_screen","null","null","","","catch","sh","l","sw","223","146","239","293","142","233","trueblood","null","null","null","null","null","null","null","null","null","null","null","","180","200","260","200","36000","52000","[2,3]"
"","canvas-keyboard-response","68","108149","0.0-6.0-2.10","46","","","","","rectangles","null","null","","","catch","sh","l","sw","223","146","239","293","142","233","trueblood","null","null","null","null","null","null","null","null","null","null","null","","180","200","260","200","36000","52000","[2,3]"
"","canvas-keyboard-response","69","108308","0.0-6.0-3.10","46","","","","","clear_screen","null","null","","","catch","sh","l","sw","223","146","239","293","142","233","trueblood","null","null","null","null","null","null","null","null","null","null","null","","180","200","260","200","36000","52000","[2,3]"
"","canvas-keyboard-response","70","109508","0.0-6.0-4.10","46","","","","","make choice","1191","2","","","catch","sh","l","sw","223","146","239","293","142","233","trueblood","null","null","null","null","null","null","null","null","null","null","null","","180","200","260","200","36000","52000","[2,3]"
"","canvas-keyboard-response","71","109667","0.0-6.0-5.10","46","","","","","clear_screen","null","null","","","catch","sh","l","sw","223","146","239","293","142","233","trueblood","null","null","null","null","null","null","null","null","null","null","null","","180","200","260","200","36000","52000","[2,3]"
"","canvas-keyboard-response","72","109867","0.0-6.0-0.11","46","","","","","pre trial waiting period","null","null","","","catch","sh","sw","l","209","211","218","189","273","181","trueblood","null","null","null","null","null","null","null","null","null","null","null","","180","200","260","200","36000","52000","[2,3]"
"","canvas-keyboard-response","73","110027","0.0-6.0-1.11","46","","","","","clear_screen","null","null","","","catch","sh","sw","l","209","211","218","189","273","181","trueblood","null","null","null","null","null","null","null","null","null","null","null","","180","200","260","200","36000","52000","[2,3]"
"","canvas-keyboard-response","74","111369","0.0-6.0-2.11","46","","","","","rectangles","null","null","","","catch","sh","sw","l","209","211","218","189","273","181","trueblood","null","null","null","null","null","null","null","null","null","null","null","","180","200","260","200","36000","52000","[2,3]"
"","canvas-keyboard-response","75","111531","0.0-6.0-3.11","46","","","","","clear_screen","null","null","","","catch","sh","sw","l","209","211","218","189","273","181","trueblood","null","null","null","null","null","null","null","null","null","null","null","","180","200","260","200","36000","52000","[2,3]"
"","canvas-keyboard-response","76","112276","0.0-6.0-4.11","46","","","","","make choice","741","3","","","catch","sh","sw","l","209","211","218","189","273","181","trueblood","null","null","null","null","null","null","null","null","null","null","null","","180","200","260","200","36000","52000","[2,3]"
"","canvas-keyboard-response","77","112434","0.0-6.0-5.11","46","","","","","clear_screen","null","null","","","catch","sh","sw","l","209","211","218","189","273","181","trueblood","null","null","null","null","null","null","null","null","null","null","null","","180","200","260","200","36000","52000","[2,3]"
"","canvas-keyboard-response","78","112637","0.0-6.0-0.12","46","","","","","pre trial waiting period","null","null","","","critical","c","t","d","164","240","240","164","227.1683","158.0083","trueblood","0.09","w","240","164","164","240","227.1683","158.0083","39360","39360","35894.4834","dc","null","null","null","null","null","null","[3,1]"
"","canvas-keyboard-response","79","112796","0.0-6.0-1.12","46","","","","","clear_screen","null","null","","","critical","c","t","d","164","240","240","164","227.1683","158.0083","trueblood","0.09","w","240","164","164","240","227.1683","158.0083","39360","39360","35894.4834","dc","null","null","null","null","null","null","[3,1]"
"","canvas-keyboard-response","80","114133","0.0-6.0-2.12","46","","","","","rectangles","null","null","","","critical","c","t","d","164","240","240","164","227.1683","158.0083","trueblood","0.09","w","240","164","164","240","227.1683","158.0083","39360","39360","35894.4834","dc","null","null","null","null","null","null","[3,1]"
"","canvas-keyboard-response","81","114292","0.0-6.0-3.12","46","","","","","clear_screen","null","null","","","critical","c","t","d","164","240","240","164","227.1683","158.0083","trueblood","0.09","w","240","164","164","240","227.1683","158.0083","39360","39360","35894.4834","dc","null","null","null","null","null","null","[3,1]"
"","canvas-keyboard-response","82","114986","0.0-6.0-4.12","46","","","","","make choice","680","3","","","critical","c","t","d","164","240","240","164","227.1683","158.0083","trueblood","0.09","w","240","164","164","240","227.1683","158.0083","39360","39360","35894.4834","dc","null","null","null","null","null","null","[3,1]"
"","canvas-keyboard-response","83","115143","0.0-6.0-5.12","46","","","","","clear_screen","null","null","","","critical","c","t","d","164","240","240","164","227.1683","158.0083","trueblood","0.09","w","240","164","164","240","227.1683","158.0083","39360","39360","35894.4834","dc","null","null","null","null","null","null","[3,1]"
"","canvas-keyboard-response","84","115345","0.0-6.0-0.13","46","","","","","pre trial waiting period","null","null","","","catch","l","sw","sh","211","232","143","216","231","141","trueblood","null","null","null","null","null","null","null","null","null","null","null","","180","200","260","200","36000","52000","[1,3]"
"","canvas-keyboard-response","85","115506","0.0-6.0-1.13","46","","","","","clear_screen","null","null","","","catch","l","sw","sh","211","232","143","216","231","141","trueblood","null","null","null","null","null","null","null","null","null","null","null","","180","200","260","200","36000","52000","[1,3]"
"","canvas-keyboard-response","86","116846","0.0-6.0-2.13","46","","","","","rectangles","null","null","","","catch","l","sw","sh","211","232","143","216","231","141","trueblood","null","null","null","null","null","null","null","null","null","null","null","","180","200","260","200","36000","52000","[1,3]"
"","canvas-keyboard-response","87","117007","0.0-6.0-3.13","46","","","","","clear_screen","null","null","","","catch","l","sw","sh","211","232","143","216","231","141","trueblood","null","null","null","null","null","null","null","null","null","null","null","","180","200","260","200","36000","52000","[1,3]"
"","canvas-keyboard-response","88","117891","0.0-6.0-4.13","46","","","","","make choice","871","1","","","catch","l","sw","sh","211","232","143","216","231","141","trueblood","null","null","null","null","null","null","null","null","null","null","null","","180","200","260","200","36000","52000","[1,3]"
"","canvas-keyboard-response","89","118053","0.0-6.0-5.13","46","","","","","clear_screen","null","null","","","catch","l","sw","sh","211","232","143","216","231","141","trueblood","null","null","null","null","null","null","null","null","null","null","null","","180","200","260","200","36000","52000","[1,3]"
"","canvas-keyboard-response","90","118255","0.0-6.0-0.14","46","","","","","pre trial waiting period","null","null","","","critical","c","t","d","164","240","240","164","220.0396","154.6796","trueblood","0.14","w","240","164","164","240","220.0396","154.6796","39360","39360","34035.6388","td","null","null","null","null","null","null","[2,3]"
"","canvas-keyboard-response","91","118415","0.0-6.0-1.14","46","","","","","clear_screen","null","null","","","critical","c","t","d","164","240","240","164","220.0396","154.6796","trueblood","0.14","w","240","164","164","240","220.0396","154.6796","39360","39360","34035.6388","td","null","null","null","null","null","null","[2,3]"
"","canvas-keyboard-response","92","119753","0.0-6.0-2.14","46","","","","","rectangles","null","null","","","critical","c","t","d","164","240","240","164","220.0396","154.6796","trueblood","0.14","w","240","164","164","240","220.0396","154.6796","39360","39360","34035.6388","td","null","null","null","null","null","null","[2,3]"
"","canvas-keyboard-response","93","119914","0.0-6.0-3.14","46","","","","","clear_screen","null","null","","","critical","c","t","d","164","240","240","164","220.0396","154.6796","trueblood","0.14","w","240","164","164","240","220.0396","154.6796","39360","39360","34035.6388","td","null","null","null","null","null","null","[2,3]"
"","canvas-keyboard-response","94","120379","0.0-6.0-4.14","46","","","","","make choice","452","2","","","critical","c","t","d","164","240","240","164","220.0396","154.6796","trueblood","0.14","w","240","164","164","240","220.0396","154.6796","39360","39360","34035.6388","td","null","null","null","null","null","null","[2,3]"
"","canvas-keyboard-response","95","120538","0.0-6.0-5.14","46","","","","","clear_screen","null","null","","","critical","c","t","d","164","240","240","164","220.0396","154.6796","trueblood","0.14","w","240","164","164","240","220.0396","154.6796","39360","39360","34035.6388","td","null","null","null","null","null","null","[2,3]"
"","canvas-keyboard-response","96","120741","0.0-6.0-0.15","46","","","","","pre trial waiting period","null","null","","","critical","c","t","d","240","164","164","240","154.6796","220.0396","spektor","0.14","h","164","240","240","164","154.6796","220.0396","39360","39360","34035.6388","dc","null","null","null","null","null","null","[3,1]"
"","canvas-keyboard-response","97","120902","0.0-6.0-1.15","46","","","","","clear_screen","null","null","","","critical","c","t","d","240","164","164","240","154.6796","220.0396","spektor","0.14","h","164","240","240","164","154.6796","220.0396","39360","39360","34035.6388","dc","null","null","null","null","null","null","[3,1]"
"","canvas-keyboard-response","98","122240","0.0-6.0-2.15","46","","","","","rectangles","null","null","","","critical","c","t","d","240","164","164","240","154.6796","220.0396","spektor","0.14","h","164","240","240","164","154.6796","220.0396","39360","39360","34035.6388","dc","null","null","null","null","null","null","[3,1]"
"","canvas-keyboard-response","99","122403","0.0-6.0-3.15","46","","","","","clear_screen","null","null","","","critical","c","t","d","240","164","164","240","154.6796","220.0396","spektor","0.14","h","164","240","240","164","154.6796","220.0396","39360","39360","34035.6388","dc","null","null","null","null","null","null","[3,1]"
"","canvas-keyboard-response","100","123500","0.0-6.0-4.15","46","","","","","make choice","1087","1","","","critical","c","t","d","240","164","164","240","154.6796","220.0396","spektor","0.14","h","164","240","240","164","154.6796","220.0396","39360","39360","34035.6388","dc","null","null","null","null","null","null","[3,1]"
"","canvas-keyboard-response","101","123660","0.0-6.0-5.15","46","","","","","clear_screen","null","null","","","critical","c","t","d","240","164","164","240","154.6796","220.0396","spektor","0.14","h","164","240","240","164","154.6796","220.0396","39360","39360","34035.6388","dc","null","null","null","null","null","null","[3,1]"
"","canvas-keyboard-response","102","123861","0.0-6.0-0.16","46","","","","","pre trial waiting period","null","null","","","critical","c","d","t","164","240","232.8713","160.6713","240","164","spektor","0.05","w","240","164","164","240","232.8713","160.6713","39360","39360","37415.7294","dc","null","null","null","null","null","null","[2,1]"
"","canvas-keyboard-response","103","124020","0.0-6.0-1.16","46","","","","","clear_screen","null","null","","","critical","c","d","t","164","240","232.8713","160.6713","240","164","spektor","0.05","w","240","164","164","240","232.8713","160.6713","39360","39360","37415.7294","dc","null","null","null","null","null","null","[2,1]"
"","canvas-keyboard-response","104","125355","0.0-6.0-2.16","46","","","","","rectangles","null","null","","","critical","c","d","t","164","240","232.8713","160.6713","240","164","spektor","0.05","w","240","164","164","240","232.8713","160.6713","39360","39360","37415.7294","dc","null","null","null","null","null","null","[2,1]"
"","canvas-keyboard-response","105","125515","0.0-6.0-3.16","46","","","","","clear_screen","null","null","","","critical","c","d","t","164","240","232.8713","160.6713","240","164","spektor","0.05","w","240","164","164","240","232.8713","160.6713","39360","39360","37415.7294","dc","null","null","null","null","null","null","[2,1]"
"","canvas-keyboard-response","106","127324","0.0-6.0-4.16","46","","","","","make choice","1798","2","","","critical","c","d","t","164","240","232.8713","160.6713","240","164","spektor","0.05","w","240","164","164","240","232.8713","160.6713","39360","39360","37415.7294","dc","null","null","null","null","null","null","[2,1]"
"","canvas-keyboard-response","107","127481","0.0-6.0-5.16","46","","","","","clear_screen","null","null","","","critical","c","d","t","164","240","232.8713","160.6713","240","164","spektor","0.05","w","240","164","164","240","232.8713","160.6713","39360","39360","37415.7294","dc","null","null","null","null","null","null","[2,1]"
"","canvas-keyboard-response","108","127682","0.0-6.0-0.17","46","","","","","pre trial waiting period","null","null","","","critical","t","d","c","164","240","160.6713","232.8713","240","164","trueblood","0.05","h","164","240","240","164","160.6713","232.8713","39360","39360","37415.7294","td","null","null","null","null","null","null","[1,2]"
"","canvas-keyboard-response","109","127840","0.0-6.0-1.17","46","","","","","clear_screen","null","null","","","critical","t","d","c","164","240","160.6713","232.8713","240","164","trueblood","0.05","h","164","240","240","164","160.6713","232.8713","39360","39360","37415.7294","td","null","null","null","null","null","null","[1,2]"
"","canvas-keyboard-response","110","129172","0.0-6.0-2.17","46","","","","","rectangles","null","null","","","critical","t","d","c","164","240","160.6713","232.8713","240","164","trueblood","0.05","h","164","240","240","164","160.6713","232.8713","39360","39360","37415.7294","td","null","null","null","null","null","null","[1,2]"
"","canvas-keyboard-response","111","129332","0.0-6.0-3.17","46","","","","","clear_screen","null","null","","","critical","t","d","c","164","240","160.6713","232.8713","240","164","trueblood","0.05","h","164","240","240","164","160.6713","232.8713","39360","39360","37415.7294","td","null","null","null","null","null","null","[1,2]"
"","canvas-keyboard-response","112","130355","0.0-6.0-4.17","46","","","","","make choice","1014","1","","","critical","t","d","c","164","240","160.6713","232.8713","240","164","trueblood","0.05","h","164","240","240","164","160.6713","232.8713","39360","39360","37415.7294","td","null","null","null","null","null","null","[1,2]"
"","canvas-keyboard-response","113","130517","0.0-6.0-5.17","46","","","","","clear_screen","null","null","","","critical","t","d","c","164","240","160.6713","232.8713","240","164","trueblood","0.05","h","164","240","240","164","160.6713","232.8713","39360","39360","37415.7294","td","null","null","null","null","null","null","[1,2]"
"","canvas-keyboard-response","114","130718","0.0-6.0-0.18","46","","","","","pre trial waiting period","null","null","","","critical","d","c","t","154.6796","220.0396","240","164","164","240","spektor","0.14","h","164","240","240","164","154.6796","220.0396","39360","39360","34035.6388","td","null","null","null","null","null","null","[3,1]"
"","canvas-keyboard-response","115","130878","0.0-6.0-1.18","46","","","","","clear_screen","null","null","","","critical","d","c","t","154.6796","220.0396","240","164","164","240","spektor","0.14","h","164","240","240","164","154.6796","220.0396","39360","39360","34035.6388","td","null","null","null","null","null","null","[3,1]"
"","canvas-keyboard-response","116","132213","0.0-6.0-2.18","46","","","","","rectangles","null","null","","","critical","d","c","t","154.6796","220.0396","240","164","164","240","spektor","0.14","h","164","240","240","164","154.6796","220.0396","39360","39360","34035.6388","td","null","null","null","null","null","null","[3,1]"
"","canvas-keyboard-response","117","132368","0.0-6.0-3.18","46","","","","","clear_screen","null","null","","","critical","d","c","t","154.6796","220.0396","240","164","164","240","spektor","0.14","h","164","240","240","164","154.6796","220.0396","39360","39360","34035.6388","td","null","null","null","null","null","null","[3,1]"
"","canvas-keyboard-response","118","133467","0.0-6.0-4.18","46","","","","","make choice","1087","3","","","critical","d","c","t","154.6796","220.0396","240","164","164","240","spektor","0.14","h","164","240","240","164","154.6796","220.0396","39360","39360","34035.6388","td","null","null","null","null","null","null","[3,1]"
"","canvas-keyboard-response","119","133628","0.0-6.0-5.18","46","","","","","clear_screen","null","null","","","critical","d","c","t","154.6796","220.0396","240","164","164","240","spektor","0.14","h","164","240","240","164","154.6796","220.0396","39360","39360","34035.6388","td","null","null","null","null","null","null","[3,1]"
"","canvas-keyboard-response","120","133829","0.0-6.0-0.19","46","","","","","pre trial waiting period","null","null","","","critical","d","t","c","162.6685","237.1485","164","240","240","164","trueblood","0.02","h","164","240","240","164","162.6685","237.1485","39360","39360","38576.5967","dc","null","null","null","null","null","null","[1,3]"
"","canvas-keyboard-response","121","133991","0.0-6.0-1.19","46","","","","","clear_screen","null","null","","","critical","d","t","c","162.6685","237.1485","164","240","240","164","trueblood","0.02","h","164","240","240","164","162.6685","237.1485","39360","39360","38576.5967","dc","null","null","null","null","null","null","[1,3]"
"","canvas-keyboard-response","122","135330","0.0-6.0-2.19","46","","","","","rectangles","null","null","","","critical","d","t","c","162.6685","237.1485","164","240","240","164","trueblood","0.02","h","164","240","240","164","162.6685","237.1485","39360","39360","38576.5967","dc","null","null","null","null","null","null","[1,3]"
"","canvas-keyboard-response","123","135490","0.0-6.0-3.19","46","","","","","clear_screen","null","null","","","critical","d","t","c","162.6685","237.1485","164","240","240","164","trueblood","0.02","h","164","240","240","164","162.6685","237.1485","39360","39360","38576.5967","dc","null","null","null","null","null","null","[1,3]"
"","canvas-keyboard-response","124","136146","0.0-6.0-4.19","46","","","","","make choice","645","3","","","critical","d","t","c","162.6685","237.1485","164","240","240","164","trueblood","0.02","h","164","240","240","164","162.6685","237.1485","39360","39360","38576.5967","dc","null","null","null","null","null","null","[1,3]"
"","canvas-keyboard-response","125","136302","0.0-6.0-5.19","46","","","","","clear_screen","null","null","","","critical","d","t","c","162.6685","237.1485","164","240","240","164","trueblood","0.02","h","164","240","240","164","162.6685","237.1485","39360","39360","38576.5967","dc","null","null","null","null","null","null","[1,3]"
"","canvas-keyboard-response","126","136504","0.0-6.0-0.20","46","","","","","pre trial waiting period","null","null","","","critical","c","t","d","240","164","164","240","162.6685","237.1485","spektor","0.02","h","164","240","240","164","162.6685","237.1485","39360","39360","38576.5967","dc","null","null","null","null","null","null","[3,1]"
"","canvas-keyboard-response","127","136663","0.0-6.0-1.20","46","","","","","clear_screen","null","null","","","critical","c","t","d","240","164","164","240","162.6685","237.1485","spektor","0.02","h","164","240","240","164","162.6685","237.1485","39360","39360","38576.5967","dc","null","null","null","null","null","null","[3,1]"
"","canvas-keyboard-response","128","137997","0.0-6.0-2.20","46","","","","","rectangles","null","null","","","critical","c","t","d","240","164","164","240","162.6685","237.1485","spektor","0.02","h","164","240","240","164","162.6685","237.1485","39360","39360","38576.5967","dc","null","null","null","null","null","null","[3,1]"
"","canvas-keyboard-response","129","138158","0.0-6.0-3.20","46","","","","","clear_screen","null","null","","","critical","c","t","d","240","164","164","240","162.6685","237.1485","spektor","0.02","h","164","240","240","164","162.6685","237.1485","39360","39360","38576.5967","dc","null","null","null","null","null","null","[3,1]"
"","canvas-keyboard-response","130","139332","0.0-6.0-4.20","46","","","","","make choice","1166","3","","","critical","c","t","d","240","164","164","240","162.6685","237.1485","spektor","0.02","h","164","240","240","164","162.6685","237.1485","39360","39360","38576.5967","dc","null","null","null","null","null","null","[3,1]"
"","canvas-keyboard-response","131","139493","0.0-6.0-5.20","46","","","","","clear_screen","null","null","","","critical","c","t","d","240","164","164","240","162.6685","237.1485","spektor","0.02","h","164","240","240","164","162.6685","237.1485","39360","39360","38576.5967","dc","null","null","null","null","null","null","[3,1]"
"","canvas-keyboard-response","132","139695","0.0-6.0-0.21","46","","","","","pre trial waiting period","null","null","","","critical","c","t","d","164","240","240","164","240","164","spektor","0","w","240","164","164","240","240","164","39360","39360","39360","tc","null","null","null","null","null","null","[2,1]"
"","canvas-keyboard-response","133","139855","0.0-6.0-1.21","46","","","","","clear_screen","null","null","","","critical","c","t","d","164","240","240","164","240","164","spektor","0","w","240","164","164","240","240","164","39360","39360","39360","tc","null","null","null","null","null","null","[2,1]"
"","canvas-keyboard-response","134","141193","0.0-6.0-2.21","46","","","","","rectangles","null","null","","","critical","c","t","d","164","240","240","164","240","164","spektor","0","w","240","164","164","240","240","164","39360","39360","39360","tc","null","null","null","null","null","null","[2,1]"
"","canvas-keyboard-response","135","141355","0.0-6.0-3.21","46","","","","","clear_screen","null","null","","","critical","c","t","d","164","240","240","164","240","164","spektor","0","w","240","164","164","240","240","164","39360","39360","39360","tc","null","null","null","null","null","null","[2,1]"
"","canvas-keyboard-response","136","142444","0.0-6.0-4.21","46","","","","","make choice","1080","2","","","critical","c","t","d","164","240","240","164","240","164","spektor","0","w","240","164","164","240","240","164","39360","39360","39360","tc","null","null","null","null","null","null","[2,1]"
"","canvas-keyboard-response","137","142603","0.0-6.0-5.21","46","","","","","clear_screen","null","null","","","critical","c","t","d","164","240","240","164","240","164","spektor","0","w","240","164","164","240","240","164","39360","39360","39360","tc","null","null","null","null","null","null","[2,1]"
"","canvas-keyboard-response","138","142805","0.0-6.0-0.22","46","","","","","pre trial waiting period","null","null","","","catch","l","sw","sh","232","170","166","164","227","140","spektor","null","null","null","null","null","null","null","null","null","null","null","","180","200","260","200","36000","52000","[1,2]"
"","canvas-keyboard-response","139","142968","0.0-6.0-1.22","46","","","","","clear_screen","null","null","","","catch","l","sw","sh","232","170","166","164","227","140","spektor","null","null","null","null","null","null","null","null","null","null","null","","180","200","260","200","36000","52000","[1,2]"
"","canvas-keyboard-response","140","144307","0.0-6.0-2.22","46","","","","","rectangles","null","null","","","catch","l","sw","sh","232","170","166","164","227","140","spektor","null","null","null","null","null","null","null","null","null","null","null","","180","200","260","200","36000","52000","[1,2]"
"","canvas-keyboard-response","141","144469","0.0-6.0-3.22","46","","","","","clear_screen","null","null","","","catch","l","sw","sh","232","170","166","164","227","140","spektor","null","null","null","null","null","null","null","null","null","null","null","","180","200","260","200","36000","52000","[1,2]"
"","canvas-keyboard-response","142","145450","0.0-6.0-4.22","46","","","","","make choice","969","1","","","catch","l","sw","sh","232","170","166","164","227","140","spektor","null","null","null","null","null","null","null","null","null","null","null","","180","200","260","200","36000","52000","[1,2]"
"","canvas-keyboard-response","143","145612","0.0-6.0-5.22","46","","","","","clear_screen","null","null","","","catch","l","sw","sh","232","170","166","164","227","140","spektor","null","null","null","null","null","null","null","null","null","null","null","","180","200","260","200","36000","52000","[1,2]"
"","canvas-keyboard-response","144","145814","0.0-6.0-0.23","46","","","","","pre trial waiting period","null","null","","","critical","c","t","d","240","164","164","240","158.0083","227.1683","trueblood","0.09","h","164","240","240","164","158.0083","227.1683","39360","39360","35894.4834","tc","null","null","null","null","null","null","[2,1]"
"","canvas-keyboard-response","145","145970","0.0-6.0-1.23","46","","","","","clear_screen","null","null","","","critical","c","t","d","240","164","164","240","158.0083","227.1683","trueblood","0.09","h","164","240","240","164","158.0083","227.1683","39360","39360","35894.4834","tc","null","null","null","null","null","null","[2,1]"
"","canvas-keyboard-response","146","147304","0.0-6.0-2.23","46","","","","","rectangles","null","null","","","critical","c","t","d","240","164","164","240","158.0083","227.1683","trueblood","0.09","h","164","240","240","164","158.0083","227.1683","39360","39360","35894.4834","tc","null","null","null","null","null","null","[2,1]"
"","canvas-keyboard-response","147","147463","0.0-6.0-3.23","46","","","","","clear_screen","null","null","","","critical","c","t","d","240","164","164","240","158.0083","227.1683","trueblood","0.09","h","164","240","240","164","158.0083","227.1683","39360","39360","35894.4834","tc","null","null","null","null","null","null","[2,1]"
"","canvas-keyboard-response","148","148060","0.0-6.0-4.23","46","","","","","make choice","585","2","","","critical","c","t","d","240","164","164","240","158.0083","227.1683","trueblood","0.09","h","164","240","240","164","158.0083","227.1683","39360","39360","35894.4834","tc","null","null","null","null","null","null","[2,1]"
"","canvas-keyboard-response","149","148219","0.0-6.0-5.23","46","","","","","clear_screen","null","null","","","critical","c","t","d","240","164","164","240","158.0083","227.1683","trueblood","0.09","h","164","240","240","164","158.0083","227.1683","39360","39360","35894.4834","tc","null","null","null","null","null","null","[2,1]"
"","canvas-keyboard-response","150","148422","0.0-6.0-0.24","46","","","","","pre trial waiting period","null","null","","","critical","c","d","t","240","164","158.0083","227.1683","164","240","spektor","0.09","h","164","240","240","164","158.0083","227.1683","39360","39360","35894.4834","td","null","null","null","null","null","null","[3,2]"
"","canvas-keyboard-response","151","148586","0.0-6.0-1.24","46","","","","","clear_screen","null","null","","","critical","c","d","t","240","164","158.0083","227.1683","164","240","spektor","0.09","h","164","240","240","164","158.0083","227.1683","39360","39360","35894.4834","td","null","null","null","null","null","null","[3,2]"
"","canvas-keyboard-response","152","149921","0.0-6.0-2.24","46","","","","","rectangles","null","null","","","critical","c","d","t","240","164","158.0083","227.1683","164","240","spektor","0.09","h","164","240","240","164","158.0083","227.1683","39360","39360","35894.4834","td","null","null","null","null","null","null","[3,2]"
"","canvas-keyboard-response","153","150082","0.0-6.0-3.24","46","","","","","clear_screen","null","null","","","critical","c","d","t","240","164","158.0083","227.1683","164","240","spektor","0.09","h","164","240","240","164","158.0083","227.1683","39360","39360","35894.4834","td","null","null","null","null","null","null","[3,2]"
"","canvas-keyboard-response","154","150459","0.0-6.0-4.24","46","","","","","make choice","364","3","","","critical","c","d","t","240","164","158.0083","227.1683","164","240","spektor","0.09","h","164","240","240","164","158.0083","227.1683","39360","39360","35894.4834","td","null","null","null","null","null","null","[3,2]"
"","canvas-keyboard-response","155","150617","0.0-6.0-5.24","46","","","","","clear_screen","null","null","","","critical","c","d","t","240","164","158.0083","227.1683","164","240","spektor","0.09","h","164","240","240","164","158.0083","227.1683","39360","39360","35894.4834","td","null","null","null","null","null","null","[3,2]"
"","canvas-keyboard-response","156","150819","0.0-6.0-0.25","46","","","","","pre trial waiting period","null","null","","","critical","d","c","t","154.6796","220.0396","240","164","164","240","trueblood","0.14","h","164","240","240","164","154.6796","220.0396","39360","39360","34035.6388","tc","null","null","null","null","null","null","[3,2]"
"","canvas-keyboard-response","157","150982","0.0-6.0-1.25","46","","","","","clear_screen","null","null","","","critical","d","c","t","154.6796","220.0396","240","164","164","240","trueblood","0.14","h","164","240","240","164","154.6796","220.0396","39360","39360","34035.6388","tc","null","null","null","null","null","null","[3,2]"
"","canvas-keyboard-response","158","152316","0.0-6.0-2.25","46","","","","","rectangles","null","null","","","critical","d","c","t","154.6796","220.0396","240","164","164","240","trueblood","0.14","h","164","240","240","164","154.6796","220.0396","39360","39360","34035.6388","tc","null","null","null","null","null","null","[3,2]"
"","canvas-keyboard-response","159","152481","0.0-6.0-3.25","46","","","","","clear_screen","null","null","","","critical","d","c","t","154.6796","220.0396","240","164","164","240","trueblood","0.14","h","164","240","240","164","154.6796","220.0396","39360","39360","34035.6388","tc","null","null","null","null","null","null","[3,2]"
"","canvas-keyboard-response","160","152940","0.0-6.0-4.25","46","","","","","make choice","448","2","","","critical","d","c","t","154.6796","220.0396","240","164","164","240","trueblood","0.14","h","164","240","240","164","154.6796","220.0396","39360","39360","34035.6388","tc","null","null","null","null","null","null","[3,2]"
"","canvas-keyboard-response","161","153099","0.0-6.0-5.25","46","","","","","clear_screen","null","null","","","critical","d","c","t","154.6796","220.0396","240","164","164","240","trueblood","0.14","h","164","240","240","164","154.6796","220.0396","39360","39360","34035.6388","tc","null","null","null","null","null","null","[3,2]"
"","canvas-keyboard-response","162","153300","0.0-6.0-0.26","46","","","","","pre trial waiting period","null","null","","","critical","c","t","d","164","240","240","164","220.0396","154.6796","spektor","0.14","w","240","164","164","240","220.0396","154.6796","39360","39360","34035.6388","tc","null","null","null","null","null","null","[2,1]"
"","canvas-keyboard-response","163","153461","0.0-6.0-1.26","46","","","","","clear_screen","null","null","","","critical","c","t","d","164","240","240","164","220.0396","154.6796","spektor","0.14","w","240","164","164","240","220.0396","154.6796","39360","39360","34035.6388","tc","null","null","null","null","null","null","[2,1]"
"","canvas-keyboard-response","164","154795","0.0-6.0-2.26","46","","","","","rectangles","null","null","","","critical","c","t","d","164","240","240","164","220.0396","154.6796","spektor","0.14","w","240","164","164","240","220.0396","154.6796","39360","39360","34035.6388","tc","null","null","null","null","null","null","[2,1]"
"","canvas-keyboard-response","165","154954","0.0-6.0-3.26","46","","","","","clear_screen","null","null","","","critical","c","t","d","164","240","240","164","220.0396","154.6796","spektor","0.14","w","240","164","164","240","220.0396","154.6796","39360","39360","34035.6388","tc","null","null","null","null","null","null","[2,1]"
"","canvas-keyboard-response","166","156275","0.0-6.0-4.26","46","","","","","make choice","1311","1","","","critical","c","t","d","164","240","240","164","220.0396","154.6796","spektor","0.14","w","240","164","164","240","220.0396","154.6796","39360","39360","34035.6388","tc","null","null","null","null","null","null","[2,1]"
"","canvas-keyboard-response","167","156435","0.0-6.0-5.26","46","","","","","clear_screen","null","null","","","critical","c","t","d","164","240","240","164","220.0396","154.6796","spektor","0.14","w","240","164","164","240","220.0396","154.6796","39360","39360","34035.6388","tc","null","null","null","null","null","null","[2,1]"
"","canvas-keyboard-response","168","156637","0.0-6.0-0.27","46","","","","","pre trial waiting period","null","null","","","catch","l","sh","sw","182","266","179","163","210","164","spektor","null","null","null","null","null","null","null","null","null","null","null","","180","200","260","200","36000","52000","[1,3]"
"","canvas-keyboard-response","169","156796","0.0-6.0-1.27","46","","","","","clear_screen","null","null","","","catch","l","sh","sw","182","266","179","163","210","164","spektor","null","null","null","null","null","null","null","null","null","null","null","","180","200","260","200","36000","52000","[1,3]"
"","canvas-keyboard-response","170","158134","0.0-6.0-2.27","46","","","","","rectangles","null","null","","","catch","l","sh","sw","182","266","179","163","210","164","spektor","null","null","null","null","null","null","null","null","null","null","null","","180","200","260","200","36000","52000","[1,3]"
"","canvas-keyboard-response","171","158296","0.0-6.0-3.27","46","","","","","clear_screen","null","null","","","catch","l","sh","sw","182","266","179","163","210","164","spektor","null","null","null","null","null","null","null","null","null","null","null","","180","200","260","200","36000","52000","[1,3]"
"","canvas-keyboard-response","172","161411","0.0-6.0-4.27","46","","","","","make choice","3105","1","","","catch","l","sh","sw","182","266","179","163","210","164","spektor","null","null","null","null","null","null","null","null","null","null","null","","180","200","260","200","36000","52000","[1,3]"
"","canvas-keyboard-response","173","161572","0.0-6.0-5.27","46","","","","","clear_screen","null","null","","","catch","l","sh","sw","182","266","179","163","210","164","spektor","null","null","null","null","null","null","null","null","null","null","null","","180","200","260","200","36000","52000","[1,3]"
"","canvas-keyboard-response","174","161773","0.0-6.0-0.28","46","","","","","pre trial waiting period","null","null","","","catch","sw","l","sh","180","200","231","228","230","158","spektor","null","null","null","null","null","null","null","null","null","null","null","","180","200","260","200","36000","52000","[1,2]"
"","canvas-keyboard-response","175","161932","0.0-6.0-1.28","46","","","","","clear_screen","null","null","","","catch","sw","l","sh","180","200","231","228","230","158","spektor","null","null","null","null","null","null","null","null","null","null","null","","180","200","260","200","36000","52000","[1,2]"
"","canvas-keyboard-response","176","163269","0.0-6.0-2.28","46","","","","","rectangles","null","null","","","catch","sw","l","sh","180","200","231","228","230","158","spektor","null","null","null","null","null","null","null","null","null","null","null","","180","200","260","200","36000","52000","[1,2]"
"","canvas-keyboard-response","177","163430","0.0-6.0-3.28","46","","","","","clear_screen","null","null","","","catch","sw","l","sh","180","200","231","228","230","158","spektor","null","null","null","null","null","null","null","null","null","null","null","","180","200","260","200","36000","52000","[1,2]"
"","canvas-keyboard-response","178","163996","0.0-6.0-4.28","46","","","","","make choice","555","2","","","catch","sw","l","sh","180","200","231","228","230","158","spektor","null","null","null","null","null","null","null","null","null","null","null","","180","200","260","200","36000","52000","[1,2]"
"","canvas-keyboard-response","179","164155","0.0-6.0-5.28","46","","","","","clear_screen","null","null","","","catch","sw","l","sh","180","200","231","228","230","158","spektor","null","null","null","null","null","null","null","null","null","null","null","","180","200","260","200","36000","52000","[1,2]"
"","canvas-keyboard-response","180","164356","0.0-6.0-0.29","46","","","","","pre trial waiting period","null","null","","","critical","c","d","t","240","164","164","240","164","240","trueblood","0","h","164","240","240","164","164","240","39360","39360","39360","td","null","null","null","null","null","null","[3,2]"
"","canvas-keyboard-response","181","164515","0.0-6.0-1.29","46","","","","","clear_screen","null","null","","","critical","c","d","t","240","164","164","240","164","240","trueblood","0","h","164","240","240","164","164","240","39360","39360","39360","td","null","null","null","null","null","null","[3,2]"
"","canvas-keyboard-response","182","165851","0.0-6.0-2.29","46","","","","","rectangles","null","null","","","critical","c","d","t","240","164","164","240","164","240","trueblood","0","h","164","240","240","164","164","240","39360","39360","39360","td","null","null","null","null","null","null","[3,2]"
"","canvas-keyboard-response","183","166009","0.0-6.0-3.29","46","","","","","clear_screen","null","null","","","critical","c","d","t","240","164","164","240","164","240","trueblood","0","h","164","240","240","164","164","240","39360","39360","39360","td","null","null","null","null","null","null","[3,2]"
"","canvas-keyboard-response","184","166939","0.0-6.0-4.29","46","","","","","make choice","918","2","","","critical","c","d","t","240","164","164","240","164","240","trueblood","0","h","164","240","240","164","164","240","39360","39360","39360","td","null","null","null","null","null","null","[3,2]"
"","canvas-keyboard-response","185","167097","0.0-6.0-5.29","46","","","","","clear_screen","null","null","","","critical","c","d","t","240","164","164","240","164","240","trueblood","0","h","164","240","240","164","164","240","39360","39360","39360","td","null","null","null","null","null","null","[3,2]"
"","canvas-keyboard-response","186","167297","0.0-6.0-0.30","46","","","","","pre trial waiting period","null","null","","","critical","c","d","t","164","240","227.1683","158.0083","240","164","trueblood","0.09","w","240","164","164","240","227.1683","158.0083","39360","39360","35894.4834","tc","null","null","null","null","null","null","[3,1]"
"","canvas-keyboard-response","187","167461","0.0-6.0-1.30","46","","","","","clear_screen","null","null","","","critical","c","d","t","164","240","227.1683","158.0083","240","164","trueblood","0.09","w","240","164","164","240","227.1683","158.0083","39360","39360","35894.4834","tc","null","null","null","null","null","null","[3,1]"
"","canvas-keyboard-response","188","168801","0.0-6.0-2.30","46","","","","","rectangles","null","null","","","critical","c","d","t","164","240","227.1683","158.0083","240","164","trueblood","0.09","w","240","164","164","240","227.1683","158.0083","39360","39360","35894.4834","tc","null","null","null","null","null","null","[3,1]"
"","canvas-keyboard-response","189","168962","0.0-6.0-3.30","46","","","","","clear_screen","null","null","","","critical","c","d","t","164","240","227.1683","158.0083","240","164","trueblood","0.09","w","240","164","164","240","227.1683","158.0083","39360","39360","35894.4834","tc","null","null","null","null","null","null","[3,1]"
"","canvas-keyboard-response","190","169484","0.0-6.0-4.30","46","","","","","make choice","508","3","","","critical","c","d","t","164","240","227.1683","158.0083","240","164","trueblood","0.09","w","240","164","164","240","227.1683","158.0083","39360","39360","35894.4834","tc","null","null","null","null","null","null","[3,1]"
"","canvas-keyboard-response","191","169643","0.0-6.0-5.30","46","","","","","clear_screen","null","null","","","critical","c","d","t","164","240","227.1683","158.0083","240","164","trueblood","0.09","w","240","164","164","240","227.1683","158.0083","39360","39360","35894.4834","tc","null","null","null","null","null","null","[3,1]"
"","canvas-keyboard-response","192","169844","0.0-6.0-0.31","46","","","","","pre trial waiting period","null","null","","","critical","t","c","d","240","164","164","240","240","164","spektor","0","w","240","164","164","240","240","164","39360","39360","39360","dc","null","null","null","null","null","null","[3,2]"
"","canvas-keyboard-response","193","170006","0.0-6.0-1.31","46","","","","","clear_screen","null","null","","","critical","t","c","d","240","164","164","240","240","164","spektor","0","w","240","164","164","240","240","164","39360","39360","39360","dc","null","null","null","null","null","null","[3,2]"
"","canvas-keyboard-response","194","171343","0.0-6.0-2.31","46","","","","","rectangles","null","null","","","critical","t","c","d","240","164","164","240","240","164","spektor","0","w","240","164","164","240","240","164","39360","39360","39360","dc","null","null","null","null","null","null","[3,2]"
"","canvas-keyboard-response","195","171504","0.0-6.0-3.31","46","","","","","clear_screen","null","null","","","critical","t","c","d","240","164","164","240","240","164","spektor","0","w","240","164","164","240","240","164","39360","39360","39360","dc","null","null","null","null","null","null","[3,2]"
"","canvas-keyboard-response","196","171771","0.0-6.0-4.31","46","","","","","make choice","260","2","","","critical","t","c","d","240","164","164","240","240","164","spektor","0","w","240","164","164","240","240","164","39360","39360","39360","dc","null","null","null","null","null","null","[3,2]"
"","canvas-keyboard-response","197","171931","0.0-6.0-5.31","46","","","","","clear_screen","null","null","","","critical","t","c","d","240","164","164","240","240","164","spektor","0","w","240","164","164","240","240","164","39360","39360","39360","dc","null","null","null","null","null","null","[3,2]"
"","canvas-keyboard-response","198","172132","0.0-6.0-0.32","46","","","","","pre trial waiting period","null","null","","","critical","d","t","c","227.1683","158.0083","240","164","164","240","spektor","0.09","w","240","164","164","240","227.1683","158.0083","39360","39360","35894.4834","tc","null","null","null","null","null","null","[2,3]"
"","canvas-keyboard-response","199","172288","0.0-6.0-1.32","46","","","","","clear_screen","null","null","","","critical","d","t","c","227.1683","158.0083","240","164","164","240","spektor","0.09","w","240","164","164","240","227.1683","158.0083","39360","39360","35894.4834","tc","null","null","null","null","null","null","[2,3]"
"","canvas-keyboard-response","200","173625","0.0-6.0-2.32","46","","","","","rectangles","null","null","","","critical","d","t","c","227.1683","158.0083","240","164","164","240","spektor","0.09","w","240","164","164","240","227.1683","158.0083","39360","39360","35894.4834","tc","null","null","null","null","null","null","[2,3]"
"","canvas-keyboard-response","201","173785","0.0-6.0-3.32","46","","","","","clear_screen","null","null","","","critical","d","t","c","227.1683","158.0083","240","164","164","240","spektor","0.09","w","240","164","164","240","227.1683","158.0083","39360","39360","35894.4834","tc","null","null","null","null","null","null","[2,3]"
"","canvas-keyboard-response","202","173892","0.0-6.0-4.32","46","","","","","make choice","95","3","","","critical","d","t","c","227.1683","158.0083","240","164","164","240","spektor","0.09","w","240","164","164","240","227.1683","158.0083","39360","39360","35894.4834","tc","null","null","null","null","null","null","[2,3]"
"","canvas-keyboard-response","203","174051","0.0-6.0-5.32","46","","","","","clear_screen","null","null","","","critical","d","t","c","227.1683","158.0083","240","164","164","240","spektor","0.09","w","240","164","164","240","227.1683","158.0083","39360","39360","35894.4834","tc","null","null","null","null","null","null","[2,3]"
"","canvas-keyboard-response","204","174255","0.0-6.0-0.33","46","","","","","pre trial waiting period","null","null","","","critical","d","c","t","160.6713","232.8713","240","164","164","240","spektor","0.05","h","164","240","240","164","160.6713","232.8713","39360","39360","37415.7294","tc","null","null","null","null","null","null","[3,2]"
"","canvas-keyboard-response","205","174417","0.0-6.0-1.33","46","","","","","clear_screen","null","null","","","critical","d","c","t","160.6713","232.8713","240","164","164","240","spektor","0.05","h","164","240","240","164","160.6713","232.8713","39360","39360","37415.7294","tc","null","null","null","null","null","null","[3,2]"
"","canvas-keyboard-response","206","175753","0.0-6.0-2.33","46","","","","","rectangles","null","null","","","critical","d","c","t","160.6713","232.8713","240","164","164","240","spektor","0.05","h","164","240","240","164","160.6713","232.8713","39360","39360","37415.7294","tc","null","null","null","null","null","null","[3,2]"
"","canvas-keyboard-response","207","175913","0.0-6.0-3.33","46","","","","","clear_screen","null","null","","","critical","d","c","t","160.6713","232.8713","240","164","164","240","spektor","0.05","h","164","240","240","164","160.6713","232.8713","39360","39360","37415.7294","tc","null","null","null","null","null","null","[3,2]"
"","canvas-keyboard-response","208","176787","0.0-6.0-4.33","46","","","","","make choice","863","3","","","critical","d","c","t","160.6713","232.8713","240","164","164","240","spektor","0.05","h","164","240","240","164","160.6713","232.8713","39360","39360","37415.7294","tc","null","null","null","null","null","null","[3,2]"
"","canvas-keyboard-response","209","176946","0.0-6.0-5.33","46","","","","","clear_screen","null","null","","","critical","d","c","t","160.6713","232.8713","240","164","164","240","spektor","0.05","h","164","240","240","164","160.6713","232.8713","39360","39360","37415.7294","tc","null","null","null","null","null","null","[3,2]"
"","canvas-keyboard-response","210","177147","0.0-6.0-0.34","46","","","","","pre trial waiting period","null","null","","","critical","d","c","t","227.1683","158.0083","164","240","240","164","spektor","0.09","w","240","164","164","240","227.1683","158.0083","39360","39360","35894.4834","td","null","null","null","null","null","null","[3,1]"
"","canvas-keyboard-response","211","177304","0.0-6.0-1.34","46","","","","","clear_screen","null","null","","","critical","d","c","t","227.1683","158.0083","164","240","240","164","spektor","0.09","w","240","164","164","240","227.1683","158.0083","39360","39360","35894.4834","td","null","null","null","null","null","null","[3,1]"
"","canvas-keyboard-response","212","178639","0.0-6.0-2.34","46","","","","","rectangles","null","null","","","critical","d","c","t","227.1683","158.0083","164","240","240","164","spektor","0.09","w","240","164","164","240","227.1683","158.0083","39360","39360","35894.4834","td","null","null","null","null","null","null","[3,1]"
"","canvas-keyboard-response","213","178802","0.0-6.0-3.34","46","","","","","clear_screen","null","null","","","critical","d","c","t","227.1683","158.0083","164","240","240","164","spektor","0.09","w","240","164","164","240","227.1683","158.0083","39360","39360","35894.4834","td","null","null","null","null","null","null","[3,1]"
"","canvas-keyboard-response","214","179506","0.0-6.0-4.34","46","","","","","make choice","690","3","","","critical","d","c","t","227.1683","158.0083","164","240","240","164","spektor","0.09","w","240","164","164","240","227.1683","158.0083","39360","39360","35894.4834","td","null","null","null","null","null","null","[3,1]"
"","canvas-keyboard-response","215","179666","0.0-6.0-5.34","46","","","","","clear_screen","null","null","","","critical","d","c","t","227.1683","158.0083","164","240","240","164","spektor","0.09","w","240","164","164","240","227.1683","158.0083","39360","39360","35894.4834","td","null","null","null","null","null","null","[3,1]"
"","canvas-keyboard-response","216","179868","0.0-6.0-0.35","46","","","","","pre trial waiting period","null","null","","","catch","l","sw","sh","213","243","202","212","231","177","trueblood","null","null","null","null","null","null","null","null","null","null","null","","180","200","260","200","36000","52000","[1,3]"
"","canvas-keyboard-response","217","180031","0.0-6.0-1.35","46","","","","","clear_screen","null","null","","","catch","l","sw","sh","213","243","202","212","231","177","trueblood","null","null","null","null","null","null","null","null","null","null","null","","180","200","260","200","36000","52000","[1,3]"
"","canvas-keyboard-response","218","181367","0.0-6.0-2.35","46","","","","","rectangles","null","null","","","catch","l","sw","sh","213","243","202","212","231","177","trueblood","null","null","null","null","null","null","null","null","null","null","null","","180","200","260","200","36000","52000","[1,3]"
"","canvas-keyboard-response","219","181527","0.0-6.0-3.35","46","","","","","clear_screen","null","null","","","catch","l","sw","sh","213","243","202","212","231","177","trueblood","null","null","null","null","null","null","null","null","null","null","null","","180","200","260","200","36000","52000","[1,3]"
"","canvas-keyboard-response","220","181987","0.0-6.0-4.35","46","","","","","make choice","452","1","","","catch","l","sw","sh","213","243","202","212","231","177","trueblood","null","null","null","null","null","null","null","null","null","null","null","","180","200","260","200","36000","52000","[1,3]"
"","canvas-keyboard-response","221","182146","0.0-6.0-5.35","46","","","","","clear_screen","null","null","","","catch","l","sw","sh","213","243","202","212","231","177","trueblood","null","null","null","null","null","null","null","null","null","null","null","","180","200","260","200","36000","52000","[1,3]"
"","canvas-keyboard-response","222","182348","0.0-6.0-0.36","46","","","","","pre trial waiting period","null","null","","","catch","l","sw","sh","220","278","198","235","175","167","spektor","null","null","null","null","null","null","null","null","null","null","null","","180","200","260","200","36000","52000","[1,2]"
"","canvas-keyboard-response","223","182508","0.0-6.0-1.36","46","","","","","clear_screen","null","null","","","catch","l","sw","sh","220","278","198","235","175","167","spektor","null","null","null","null","null","null","null","null","null","null","null","","180","200","260","200","36000","52000","[1,2]"
"","canvas-keyboard-response","224","183846","0.0-6.0-2.36","46","","","","","rectangles","null","null","","","catch","l","sw","sh","220","278","198","235","175","167","spektor","null","null","null","null","null","null","null","null","null","null","null","","180","200","260","200","36000","52000","[1,2]"
"","canvas-keyboard-response","225","184007","0.0-6.0-3.36","46","","","","","clear_screen","null","null","","","catch","l","sw","sh","220","278","198","235","175","167","spektor","null","null","null","null","null","null","null","null","null","null","null","","180","200","260","200","36000","52000","[1,2]"
"","canvas-keyboard-response","226","184547","0.0-6.0-4.36","46","","","","","make choice","530","1","","","catch","l","sw","sh","220","278","198","235","175","167","spektor","null","null","null","null","null","null","null","null","null","null","null","","180","200","260","200","36000","52000","[1,2]"
"","canvas-keyboard-response","227","184706","0.0-6.0-5.36","46","","","","","clear_screen","null","null","","","catch","l","sw","sh","220","278","198","235","175","167","spektor","null","null","null","null","null","null","null","null","null","null","null","","180","200","260","200","36000","52000","[1,2]"
"","canvas-keyboard-response","228","184908","0.0-6.0-0.37","46","","","","","pre trial waiting period","null","null","","","catch","sw","sh","l","180","200","227","167","198","224","trueblood","null","null","null","null","null","null","null","null","null","null","null","","180","200","260","200","36000","52000","[1,3]"
"","canvas-keyboard-response","229","185068","0.0-6.0-1.37","46","","","","","clear_screen","null","null","","","catch","sw","sh","l","180","200","227","167","198","224","trueblood","null","null","null","null","null","null","null","null","null","null","null","","180","200","260","200","36000","52000","[1,3]"
"","canvas-keyboard-response","230","186405","0.0-6.0-2.37","46","","","","","rectangles","null","null","","","catch","sw","sh","l","180","200","227","167","198","224","trueblood","null","null","null","null","null","null","null","null","null","null","null","","180","200","260","200","36000","52000","[1,3]"
"","canvas-keyboard-response","231","186566","0.0-6.0-3.37","46","","","","","clear_screen","null","null","","","catch","sw","sh","l","180","200","227","167","198","224","trueblood","null","null","null","null","null","null","null","null","null","null","null","","180","200","260","200","36000","52000","[1,3]"
"","canvas-keyboard-response","232","186915","0.0-6.0-4.37","46","","","","","make choice","339","3","","","catch","sw","sh","l","180","200","227","167","198","224","trueblood","null","null","null","null","null","null","null","null","null","null","null","","180","200","260","200","36000","52000","[1,3]"
"","canvas-keyboard-response","233","187075","0.0-6.0-5.37","46","","","","","clear_screen","null","null","","","catch","sw","sh","l","180","200","227","167","198","224","trueblood","null","null","null","null","null","null","null","null","null","null","null","","180","200","260","200","36000","52000","[1,3]"
"","canvas-keyboard-response","234","187277","0.0-6.0-0.38","46","","","","","pre trial waiting period","null","null","","","critical","t","c","d","240","164","164","240","240","164","trueblood","0","w","240","164","164","240","240","164","39360","39360","39360","td","null","null","null","null","null","null","[1,3]"
"","canvas-keyboard-response","235","187438","0.0-6.0-1.38","46","","","","","clear_screen","null","null","","","critical","t","c","d","240","164","164","240","240","164","trueblood","0","w","240","164","164","240","240","164","39360","39360","39360","td","null","null","null","null","null","null","[1,3]"
"","canvas-keyboard-response","236","188773","0.0-6.0-2.38","46","","","","","rectangles","null","null","","","critical","t","c","d","240","164","164","240","240","164","trueblood","0","w","240","164","164","240","240","164","39360","39360","39360","td","null","null","null","null","null","null","[1,3]"
"","canvas-keyboard-response","237","188932","0.0-6.0-3.38","46","","","","","clear_screen","null","null","","","critical","t","c","d","240","164","164","240","240","164","trueblood","0","w","240","164","164","240","240","164","39360","39360","39360","td","null","null","null","null","null","null","[1,3]"
"","canvas-keyboard-response","238","190242","0.0-6.0-4.38","46","","","","","make choice","1298","3","","","critical","t","c","d","240","164","164","240","240","164","trueblood","0","w","240","164","164","240","240","164","39360","39360","39360","td","null","null","null","null","null","null","[1,3]"
"","canvas-keyboard-response","239","190401","0.0-6.0-5.38","46","","","","","clear_screen","null","null","","","critical","t","c","d","240","164","164","240","240","164","trueblood","0","w","240","164","164","240","240","164","39360","39360","39360","td","null","null","null","null","null","null","[1,3]"
"","canvas-keyboard-response","240","190603","0.0-6.0-0.39","46","","","","","pre trial waiting period","null","null","","","catch","l","sw","sh","214","270","205","216","194","164","trueblood","null","null","null","null","null","null","null","null","null","null","null","","180","200","260","200","36000","52000","[1,2]"
"","canvas-keyboard-response","241","190763","0.0-6.0-1.39","46","","","","","clear_screen","null","null","","","catch","l","sw","sh","214","270","205","216","194","164","trueblood","null","null","null","null","null","null","null","null","null","null","null","","180","200","260","200","36000","52000","[1,2]"
"","canvas-keyboard-response","242","192098","0.0-6.0-2.39","46","","","","","rectangles","null","null","","","catch","l","sw","sh","214","270","205","216","194","164","trueblood","null","null","null","null","null","null","null","null","null","null","null","","180","200","260","200","36000","52000","[1,2]"
"","canvas-keyboard-response","243","192259","0.0-6.0-3.39","46","","","","","clear_screen","null","null","","","catch","l","sw","sh","214","270","205","216","194","164","trueblood","null","null","null","null","null","null","null","null","null","null","null","","180","200","260","200","36000","52000","[1,2]"
"","canvas-keyboard-response","244","192476","0.0-6.0-4.39","46","","","","","make choice","208","1","","","catch","l","sw","sh","214","270","205","216","194","164","trueblood","null","null","null","null","null","null","null","null","null","null","null","","180","200","260","200","36000","52000","[1,2]"
"","canvas-keyboard-response","245","192636","0.0-6.0-5.39","46","","","","","clear_screen","null","null","","","catch","l","sw","sh","214","270","205","216","194","164","trueblood","null","null","null","null","null","null","null","null","null","null","null","","180","200","260","200","36000","52000","[1,2]"
"","canvas-keyboard-response","246","192838","0.0-6.0-0.40","46","","","","","pre trial waiting period","null","null","","","critical","d","c","t","237.1485","162.6685","164","240","240","164","spektor","0.02","w","240","164","164","240","237.1485","162.6685","39360","39360","38576.5967","dc","null","null","null","null","null","null","[1,2]"
"","canvas-keyboard-response","247","192997","0.0-6.0-1.40","46","","","","","clear_screen","null","null","","","critical","d","c","t","237.1485","162.6685","164","240","240","164","spektor","0.02","w","240","164","164","240","237.1485","162.6685","39360","39360","38576.5967","dc","null","null","null","null","null","null","[1,2]"
"","canvas-keyboard-response","248","194328","0.0-6.0-2.40","46","","","","","rectangles","null","null","","","critical","d","c","t","237.1485","162.6685","164","240","240","164","spektor","0.02","w","240","164","164","240","237.1485","162.6685","39360","39360","38576.5967","dc","null","null","null","null","null","null","[1,2]"
"","canvas-keyboard-response","249","194490","0.0-6.0-3.40","46","","","","","clear_screen","null","null","","","critical","d","c","t","237.1485","162.6685","164","240","240","164","spektor","0.02","w","240","164","164","240","237.1485","162.6685","39360","39360","38576.5967","dc","null","null","null","null","null","null","[1,2]"
"","canvas-keyboard-response","250","194963","0.0-6.0-4.40","46","","","","","make choice","464","2","","","critical","d","c","t","237.1485","162.6685","164","240","240","164","spektor","0.02","w","240","164","164","240","237.1485","162.6685","39360","39360","38576.5967","dc","null","null","null","null","null","null","[1,2]"
"","canvas-keyboard-response","251","195126","0.0-6.0-5.40","46","","","","","clear_screen","null","null","","","critical","d","c","t","237.1485","162.6685","164","240","240","164","spektor","0.02","w","240","164","164","240","237.1485","162.6685","39360","39360","38576.5967","dc","null","null","null","null","null","null","[1,2]"
"","canvas-keyboard-response","252","195327","0.0-6.0-0.41","46","","","","","pre trial waiting period","null","null","","","critical","t","d","c","164","240","164","240","240","164","trueblood","0","h","164","240","240","164","164","240","39360","39360","39360","dc","null","null","null","null","null","null","[2,3]"
"","canvas-keyboard-response","253","195487","0.0-6.0-1.41","46","","","","","clear_screen","null","null","","","critical","t","d","c","164","240","164","240","240","164","trueblood","0","h","164","240","240","164","164","240","39360","39360","39360","dc","null","null","null","null","null","null","[2,3]"
"","canvas-keyboard-response","254","196823","0.0-6.0-2.41","46","","","","","rectangles","null","null","","","critical","t","d","c","164","240","164","240","240","164","trueblood","0","h","164","240","240","164","164","240","39360","39360","39360","dc","null","null","null","null","null","null","[2,3]"
"","canvas-keyboard-response","255","196980","0.0-6.0-3.41","46","","","","","clear_screen","null","null","","","critical","t","d","c","164","240","164","240","240","164","trueblood","0","h","164","240","240","164","164","240","39360","39360","39360","dc","null","null","null","null","null","null","[2,3]"
"","canvas-keyboard-response","256","197427","0.0-6.0-4.41","46","","","","","make choice","439","2","","","critical","t","d","c","164","240","164","240","240","164","trueblood","0","h","164","240","240","164","164","240","39360","39360","39360","dc","null","null","null","null","null","null","[2,3]"
"","canvas-keyboard-response","257","197588","0.0-6.0-5.41","46","","","","","clear_screen","null","null","","","critical","t","d","c","164","240","164","240","240","164","trueblood","0","h","164","240","240","164","164","240","39360","39360","39360","dc","null","null","null","null","null","null","[2,3]"
"","canvas-keyboard-response","258","197790","0.0-6.0-0.42","46","","","","","pre trial waiting period","null","null","","","catch","sw","l","sh","180","200","247","217","233","177","spektor","null","null","null","null","null","null","null","null","null","null","null","","180","200","260","200","36000","52000","[1,2]"
"","canvas-keyboard-response","259","197954","0.0-6.0-1.42","46","","","","","clear_screen","null","null","","","catch","sw","l","sh","180","200","247","217","233","177","spektor","null","null","null","null","null","null","null","null","null","null","null","","180","200","260","200","36000","52000","[1,2]"
"","canvas-keyboard-response","260","199290","0.0-6.0-2.42","46","","","","","rectangles","null","null","","","catch","sw","l","sh","180","200","247","217","233","177","spektor","null","null","null","null","null","null","null","null","null","null","null","","180","200","260","200","36000","52000","[1,2]"
"","canvas-keyboard-response","261","199450","0.0-6.0-3.42","46","","","","","clear_screen","null","null","","","catch","sw","l","sh","180","200","247","217","233","177","spektor","null","null","null","null","null","null","null","null","null","null","null","","180","200","260","200","36000","52000","[1,2]"
"","canvas-keyboard-response","262","199811","0.0-6.0-4.42","46","","","","","make choice","355","2","","","catch","sw","l","sh","180","200","247","217","233","177","spektor","null","null","null","null","null","null","null","null","null","null","null","","180","200","260","200","36000","52000","[1,2]"
"","canvas-keyboard-response","263","199970","0.0-6.0-5.42","46","","","","","clear_screen","null","null","","","catch","sw","l","sh","180","200","247","217","233","177","spektor","null","null","null","null","null","null","null","null","null","null","null","","180","200","260","200","36000","52000","[1,2]"
"","canvas-keyboard-response","264","200172","0.0-6.0-0.43","46","","","","","pre trial waiting period","null","null","","","critical","d","c","t","154.6796","220.0396","240","164","164","240","trueblood","0.14","h","164","240","240","164","154.6796","220.0396","39360","39360","34035.6388","td","null","null","null","null","null","null","[3,1]"
"","canvas-keyboard-response","265","200336","0.0-6.0-1.43","46","","","","","clear_screen","null","null","","","critical","d","c","t","154.6796","220.0396","240","164","164","240","trueblood","0.14","h","164","240","240","164","154.6796","220.0396","39360","39360","34035.6388","td","null","null","null","null","null","null","[3,1]"
"","canvas-keyboard-response","266","201677","0.0-6.0-2.43","46","","","","","rectangles","null","null","","","critical","d","c","t","154.6796","220.0396","240","164","164","240","trueblood","0.14","h","164","240","240","164","154.6796","220.0396","39360","39360","34035.6388","td","null","null","null","null","null","null","[3,1]"
"","canvas-keyboard-response","267","201840","0.0-6.0-3.43","46","","","","","clear_screen","null","null","","","critical","d","c","t","154.6796","220.0396","240","164","164","240","trueblood","0.14","h","164","240","240","164","154.6796","220.0396","39360","39360","34035.6388","td","null","null","null","null","null","null","[3,1]"
"","canvas-keyboard-response","268","203739","0.0-6.0-4.43","46","","","","","make choice","1889","3","","","critical","d","c","t","154.6796","220.0396","240","164","164","240","trueblood","0.14","h","164","240","240","164","154.6796","220.0396","39360","39360","34035.6388","td","null","null","null","null","null","null","[3,1]"
"","canvas-keyboard-response","269","203899","0.0-6.0-5.43","46","","","","","clear_screen","null","null","","","critical","d","c","t","154.6796","220.0396","240","164","164","240","trueblood","0.14","h","164","240","240","164","154.6796","220.0396","39360","39360","34035.6388","td","null","null","null","null","null","null","[3,1]"
"","canvas-keyboard-response","270","204100","0.0-6.0-0.44","46","","","","","pre trial waiting period","null","null","","","catch","sw","l","sh","180","200","178","266","180","156","trueblood","null","null","null","null","null","null","null","null","null","null","null","","180","200","260","200","36000","52000","[1,2]"
"","canvas-keyboard-response","271","204260","0.0-6.0-1.44","46","","","","","clear_screen","null","null","","","catch","sw","l","sh","180","200","178","266","180","156","trueblood","null","null","null","null","null","null","null","null","null","null","null","","180","200","260","200","36000","52000","[1,2]"
"","canvas-keyboard-response","272","205596","0.0-6.0-2.44","46","","","","","rectangles","null","null","","","catch","sw","l","sh","180","200","178","266","180","156","trueblood","null","null","null","null","null","null","null","null","null","null","null","","180","200","260","200","36000","52000","[1,2]"
"","canvas-keyboard-response","273","205756","0.0-6.0-3.44","46","","","","","clear_screen","null","null","","","catch","sw","l","sh","180","200","178","266","180","156","trueblood","null","null","null","null","null","null","null","null","null","null","null","","180","200","260","200","36000","52000","[1,2]"
"","canvas-keyboard-response","274","206290","0.0-6.0-4.44","46","","","","","make choice","529","2","","","catch","sw","l","sh","180","200","178","266","180","156","trueblood","null","null","null","null","null","null","null","null","null","null","null","","180","200","260","200","36000","52000","[1,2]"
"","canvas-keyboard-response","275","206445","0.0-6.0-5.44","46","","","","","clear_screen","null","null","","","catch","sw","l","sh","180","200","178","266","180","156","trueblood","null","null","null","null","null","null","null","null","null","null","null","","180","200","260","200","36000","52000","[1,2]"
"","canvas-keyboard-response","276","206646","0.0-6.0-0.45","46","","","","","pre trial waiting period","null","null","","","critical","c","d","t","240","164","158.0083","227.1683","164","240","spektor","0.09","h","164","240","240","164","158.0083","227.1683","39360","39360","35894.4834","tc","null","null","null","null","null","null","[3,1]"
"","canvas-keyboard-response","277","206806","0.0-6.0-1.45","46","","","","","clear_screen","null","null","","","critical","c","d","t","240","164","158.0083","227.1683","164","240","spektor","0.09","h","164","240","240","164","158.0083","227.1683","39360","39360","35894.4834","tc","null","null","null","null","null","null","[3,1]"
"","canvas-keyboard-response","278","208142","0.0-6.0-2.45","46","","","","","rectangles","null","null","","","critical","c","d","t","240","164","158.0083","227.1683","164","240","spektor","0.09","h","164","240","240","164","158.0083","227.1683","39360","39360","35894.4834","tc","null","null","null","null","null","null","[3,1]"
"","canvas-keyboard-response","279","208305","0.0-6.0-3.45","46","","","","","clear_screen","null","null","","","critical","c","d","t","240","164","158.0083","227.1683","164","240","spektor","0.09","h","164","240","240","164","158.0083","227.1683","39360","39360","35894.4834","tc","null","null","null","null","null","null","[3,1]"
"","canvas-keyboard-response","280","209235","0.0-6.0-4.45","46","","","","","make choice","927","3","","","critical","c","d","t","240","164","158.0083","227.1683","164","240","spektor","0.09","h","164","240","240","164","158.0083","227.1683","39360","39360","35894.4834","tc","null","null","null","null","null","null","[3,1]"
"","canvas-keyboard-response","281","209393","0.0-6.0-5.45","46","","","","","clear_screen","null","null","","","critical","c","d","t","240","164","158.0083","227.1683","164","240","spektor","0.09","h","164","240","240","164","158.0083","227.1683","39360","39360","35894.4834","tc","null","null","null","null","null","null","[3,1]"
"","canvas-keyboard-response","282","209596","0.0-6.0-0.46","46","","","","","pre trial waiting period","null","null","","","catch","sh","sw","l","206","154","186","220","266","198","trueblood","null","null","null","null","null","null","null","null","null","null","null","","180","200","260","200","36000","52000","[1,3]"
"","canvas-keyboard-response","283","209759","0.0-6.0-1.46","46","","","","","clear_screen","null","null","","","catch","sh","sw","l","206","154","186","220","266","198","trueblood","null","null","null","null","null","null","null","null","null","null","null","","180","200","260","200","36000","52000","[1,3]"
"","canvas-keyboard-response","284","211097","0.0-6.0-2.46","46","","","","","rectangles","null","null","","","catch","sh","sw","l","206","154","186","220","266","198","trueblood","null","null","null","null","null","null","null","null","null","null","null","","180","200","260","200","36000","52000","[1,3]"
"","canvas-keyboard-response","285","211259","0.0-6.0-3.46","46","","","","","clear_screen","null","null","","","catch","sh","sw","l","206","154","186","220","266","198","trueblood","null","null","null","null","null","null","null","null","null","null","null","","180","200","260","200","36000","52000","[1,3]"
"","canvas-keyboard-response","286","211828","0.0-6.0-4.46","46","","","","","make choice","560","3","","","catch","sh","sw","l","206","154","186","220","266","198","trueblood","null","null","null","null","null","null","null","null","null","null","null","","180","200","260","200","36000","52000","[1,3]"
"","canvas-keyboard-response","287","211987","0.0-6.0-5.46","46","","","","","clear_screen","null","null","","","catch","sh","sw","l","206","154","186","220","266","198","trueblood","null","null","null","null","null","null","null","null","null","null","null","","180","200","260","200","36000","52000","[1,3]"
"","canvas-keyboard-response","288","212190","0.0-6.0-0.47","46","","","","","pre trial waiting period","null","null","","","critical","t","c","d","164","240","240","164","164","240","trueblood","0","h","164","240","240","164","164","240","39360","39360","39360","tc","null","null","null","null","null","null","[1,2]"
"","canvas-keyboard-response","289","212353","0.0-6.0-1.47","46","","","","","clear_screen","null","null","","","critical","t","c","d","164","240","240","164","164","240","trueblood","0","h","164","240","240","164","164","240","39360","39360","39360","tc","null","null","null","null","null","null","[1,2]"
"","canvas-keyboard-response","290","213685","0.0-6.0-2.47","46","","","","","rectangles","null","null","","","critical","t","c","d","164","240","240","164","164","240","trueblood","0","h","164","240","240","164","164","240","39360","39360","39360","tc","null","null","null","null","null","null","[1,2]"
"","canvas-keyboard-response","291","213847","0.0-6.0-3.47","46","","","","","clear_screen","null","null","","","critical","t","c","d","164","240","240","164","164","240","trueblood","0","h","164","240","240","164","164","240","39360","39360","39360","tc","null","null","null","null","null","null","[1,2]"
"","canvas-keyboard-response","292","214330","0.0-6.0-4.47","46","","","","","make choice","474","2","","","critical","t","c","d","164","240","240","164","164","240","trueblood","0","h","164","240","240","164","164","240","39360","39360","39360","tc","null","null","null","null","null","null","[1,2]"
"","canvas-keyboard-response","293","214486","0.0-6.0-5.47","46","","","","","clear_screen","null","null","","","critical","t","c","d","164","240","240","164","164","240","trueblood","0","h","164","240","240","164","164","240","39360","39360","39360","tc","null","null","null","null","null","null","[1,2]"
"","canvas-keyboard-response","294","214688","0.0-6.0-0.48","46","","","","","pre trial waiting period","null","null","","","critical","t","c","d","240","164","164","240","240","164","trueblood","0","w","240","164","164","240","240","164","39360","39360","39360","tc","null","null","null","null","null","null","[1,2]"
"","canvas-keyboard-response","295","214848","0.0-6.0-1.48","46","","","","","clear_screen","null","null","","","critical","t","c","d","240","164","164","240","240","164","trueblood","0","w","240","164","164","240","240","164","39360","39360","39360","tc","null","null","null","null","null","null","[1,2]"
"","canvas-keyboard-response","296","216181","0.0-6.0-2.48","46","","","","","rectangles","null","null","","","critical","t","c","d","240","164","164","240","240","164","trueblood","0","w","240","164","164","240","240","164","39360","39360","39360","tc","null","null","null","null","null","null","[1,2]"
"","canvas-keyboard-response","297","216344","0.0-6.0-3.48","46","","","","","clear_screen","null","null","","","critical","t","c","d","240","164","164","240","240","164","trueblood","0","w","240","164","164","240","240","164","39360","39360","39360","tc","null","null","null","null","null","null","[1,2]"
"","canvas-keyboard-response","298","217164","0.0-6.0-4.48","46","","","","","make choice","811","2","","","critical","t","c","d","240","164","164","240","240","164","trueblood","0","w","240","164","164","240","240","164","39360","39360","39360","tc","null","null","null","null","null","null","[1,2]"
"","canvas-keyboard-response","299","217321","0.0-6.0-5.48","46","","","","","clear_screen","null","null","","","critical","t","c","d","240","164","164","240","240","164","trueblood","0","w","240","164","164","240","240","164","39360","39360","39360","tc","null","null","null","null","null","null","[1,2]"
"","canvas-keyboard-response","300","217523","0.0-6.0-0.49","46","","","","","pre trial waiting period","null","null","","","critical","d","c","t","164","240","240","164","164","240","spektor","0","h","164","240","240","164","164","240","39360","39360","39360","tc","null","null","null","null","null","null","[3,2]"
"","canvas-keyboard-response","301","217687","0.0-6.0-1.49","46","","","","","clear_screen","null","null","","","critical","d","c","t","164","240","240","164","164","240","spektor","0","h","164","240","240","164","164","240","39360","39360","39360","tc","null","null","null","null","null","null","[3,2]"
"","canvas-keyboard-response","302","219026","0.0-6.0-2.49","46","","","","","rectangles","null","null","","","critical","d","c","t","164","240","240","164","164","240","spektor","0","h","164","240","240","164","164","240","39360","39360","39360","tc","null","null","null","null","null","null","[3,2]"
"","canvas-keyboard-response","303","219190","0.0-6.0-3.49","46","","","","","clear_screen","null","null","","","critical","d","c","t","164","240","240","164","164","240","spektor","0","h","164","240","240","164","164","240","39360","39360","39360","tc","null","null","null","null","null","null","[3,2]"
"","canvas-keyboard-response","304","219588","0.0-6.0-4.49","46","","","","","make choice","384","3","","","critical","d","c","t","164","240","240","164","164","240","spektor","0","h","164","240","240","164","164","240","39360","39360","39360","tc","null","null","null","null","null","null","[3,2]"
"","canvas-keyboard-response","305","219747","0.0-6.0-5.49","46","","","","","clear_screen","null","null","","","critical","d","c","t","164","240","240","164","164","240","spektor","0","h","164","240","240","164","164","240","39360","39360","39360","tc","null","null","null","null","null","null","[3,2]"
"","canvas-keyboard-response","306","219949","0.0-6.0-0.50","46","","","","","pre trial waiting period","null","null","","","critical","d","t","c","220.0396","154.6796","240","164","164","240","spektor","0.14","w","240","164","164","240","220.0396","154.6796","39360","39360","34035.6388","td","null","null","null","null","null","null","[2,1]"
"","canvas-keyboard-response","307","220110","0.0-6.0-1.50","46","","","","","clear_screen","null","null","","","critical","d","t","c","220.0396","154.6796","240","164","164","240","spektor","0.14","w","240","164","164","240","220.0396","154.6796","39360","39360","34035.6388","td","null","null","null","null","null","null","[2,1]"
"","canvas-keyboard-response","308","221446","0.0-6.0-2.50","46","","","","","rectangles","null","null","","","critical","d","t","c","220.0396","154.6796","240","164","164","240","spektor","0.14","w","240","164","164","240","220.0396","154.6796","39360","39360","34035.6388","td","null","null","null","null","null","null","[2,1]"
