success,trial_type,trial_index,time_elapsed,internal_node_id,sub_n,timeout,failed_images,failed_audio,failed_video,screen_id,rt,response,stimulus,view_history,trial,r1,r2,r3,w1,h1,w2,h2,w3,h3,display,tdd,tdo,tw,th,cw,ch,dw,dh,ta,ca,da,probe,csls,csss,clls,clss,sa,la,probe_rects
TRUE,fullscreen,0,4492,0.0-0.0,5011,NA,NA,NA,NA,NA,NA,NA,NA,NA,NA,NA,NA,NA,NA,NA,NA,NA,NA,NA,NA,NA,NA,NA,NA,NA,NA,NA,NA,NA,NA,NA,NA,NA,NA,NA,NA,NA,NA,NA
TRUE,preload,1,4513,0.0-1.0,5011,FALSE,NA,NA,NA,img preload,NA,NA,NA,NA,NA,NA,NA,NA,NA,NA,NA,NA,NA,NA,NA,NA,NA,NA,NA,NA,NA,NA,NA,NA,NA,NA,NA,NA,NA,NA,NA,NA,NA,NA
NA,survey-html-form,2,13044,0.0-2.0,5011,NA,NA,NA,NA,enter-sub-number,8515,"{""response"":""03""}",NA,NA,NA,NA,NA,NA,NA,NA,NA,NA,NA,NA,NA,NA,NA,NA,NA,NA,NA,NA,NA,NA,NA,NA,NA,NA,NA,NA,NA,NA,NA,NA
NA,image-button-response,3,21198,0.0-3.0,5011,NA,NA,NA,NA,NA,8048,0,consent.png,NA,NA,NA,NA,NA,NA,NA,NA,NA,NA,NA,NA,NA,NA,NA,NA,NA,NA,NA,NA,NA,NA,NA,NA,NA,NA,NA,NA,NA,NA,NA
NA,html-button-response,4,25700,0.0-4.0,5011,NA,NA,NA,NA,intro mssg,4497,0,"<div style= ""font-size:25px;"" <p> <strong> Welcome! </strong><br> <p style=""color:#8B0000; font-size:25px;""><strong> Please do NOT exit full screen until you are done with the experiment. </strong> </p><p style=""font-size:25px;color:#8B0000;""> <strong> Your data will be lost <br> if you try to go back or refresh the page after the experiment starts. Feel free to click ""previous"" during the instructions, however.</strong> </p><br><p> <strong> Thanks in advance for your contribution to our research! </strong></p>",NA,NA,NA,NA,NA,NA,NA,NA,NA,NA,NA,NA,NA,NA,NA,NA,NA,NA,NA,NA,NA,NA,NA,NA,NA,NA,NA,NA,NA,NA,NA
NA,instructions,5,76253,0.0-5.0,5011,NA,NA,NA,NA,instructions,50550,NA,NA,NA,NA,NA,NA,NA,NA,NA,NA,NA,NA,NA,NA,NA,NA,NA,NA,NA,NA,NA,NA,NA,NA,NA,NA,NA,NA,NA,NA,NA,NA,NA
NA,canvas-keyboard-response,6,76458,0.0-6.0-0.0,5011,NA,NA,NA,NA,pre trial waiting period,null,null,NA,NA,critical,c,t,d,164,240,240,164,240,164,trueblood,0,w,240,164,164,240,240,164,39360,39360,39360,dc,null,null,null,null,null,null,"[3,1]"
NA,canvas-keyboard-response,7,76623,0.0-6.0-1.0,5011,NA,NA,NA,NA,clear_screen,null,null,NA,NA,critical,c,t,d,164,240,240,164,240,164,trueblood,0,w,240,164,164,240,240,164,39360,39360,39360,dc,null,null,null,null,null,null,"[3,1]"
NA,canvas-keyboard-response,8,77968,0.0-6.0-2.0,5011,NA,NA,NA,NA,rectangles,null,null,NA,NA,critical,c,t,d,164,240,240,164,240,164,trueblood,0,w,240,164,164,240,240,164,39360,39360,39360,dc,null,null,null,null,null,null,"[3,1]"
NA,canvas-keyboard-response,9,78132,0.0-6.0-3.0,5011,NA,NA,NA,NA,clear_screen,null,null,NA,NA,critical,c,t,d,164,240,240,164,240,164,trueblood,0,w,240,164,164,240,240,164,39360,39360,39360,dc,null,null,null,null,null,null,"[3,1]"
NA,canvas-keyboard-response,10,84401,0.0-6.0-4.0,5011,NA,NA,NA,NA,make choice,6254,3,NA,NA,critical,c,t,d,164,240,240,164,240,164,trueblood,0,w,240,164,164,240,240,164,39360,39360,39360,dc,null,null,null,null,null,null,"[3,1]"
NA,canvas-keyboard-response,11,84564,0.0-6.0-5.0,5011,NA,NA,NA,NA,clear_screen,null,null,NA,NA,critical,c,t,d,164,240,240,164,240,164,trueblood,0,w,240,164,164,240,240,164,39360,39360,39360,dc,null,null,null,null,null,null,"[3,1]"
NA,canvas-keyboard-response,12,84768,0.0-6.0-0.1,5011,NA,NA,NA,NA,pre trial waiting period,null,null,NA,NA,catch,l,sw,sh,261,203,163,220,206,188,trueblood,null,null,null,null,null,null,null,null,null,null,null,NA,180,200,260,200,36000,52000,"[1,2]"
NA,canvas-keyboard-response,13,84927,0.0-6.0-1.1,5011,NA,NA,NA,NA,clear_screen,null,null,NA,NA,catch,l,sw,sh,261,203,163,220,206,188,trueblood,null,null,null,null,null,null,null,null,null,null,null,NA,180,200,260,200,36000,52000,"[1,2]"
NA,canvas-keyboard-response,14,86266,0.0-6.0-2.1,5011,NA,NA,NA,NA,rectangles,null,null,NA,NA,catch,l,sw,sh,261,203,163,220,206,188,trueblood,null,null,null,null,null,null,null,null,null,null,null,NA,180,200,260,200,36000,52000,"[1,2]"
NA,canvas-keyboard-response,15,86427,0.0-6.0-3.1,5011,NA,NA,NA,NA,clear_screen,null,null,NA,NA,catch,l,sw,sh,261,203,163,220,206,188,trueblood,null,null,null,null,null,null,null,null,null,null,null,NA,180,200,260,200,36000,52000,"[1,2]"
NA,canvas-keyboard-response,16,88809,0.0-6.0-4.1,5011,NA,NA,NA,NA,make choice,2371,1,NA,NA,catch,l,sw,sh,261,203,163,220,206,188,trueblood,null,null,null,null,null,null,null,null,null,null,null,NA,180,200,260,200,36000,52000,"[1,2]"
NA,canvas-keyboard-response,17,88976,0.0-6.0-5.1,5011,NA,NA,NA,NA,clear_screen,null,null,NA,NA,catch,l,sw,sh,261,203,163,220,206,188,trueblood,null,null,null,null,null,null,null,null,null,null,null,NA,180,200,260,200,36000,52000,"[1,2]"
NA,canvas-keyboard-response,18,89180,0.0-6.0-0.2,5011,NA,NA,NA,NA,pre trial waiting period,null,null,NA,NA,catch,l,sw,sh,223,262,205,219,166,152,spektor,null,null,null,null,null,null,null,null,null,null,null,NA,180,200,260,200,36000,52000,"[1,3]"
NA,canvas-keyboard-response,19,89340,0.0-6.0-1.2,5011,NA,NA,NA,NA,clear_screen,null,null,NA,NA,catch,l,sw,sh,223,262,205,219,166,152,spektor,null,null,null,null,null,null,null,null,null,null,null,NA,180,200,260,200,36000,52000,"[1,3]"
NA,canvas-keyboard-response,20,90681,0.0-6.0-2.2,5011,NA,NA,NA,NA,rectangles,null,null,NA,NA,catch,l,sw,sh,223,262,205,219,166,152,spektor,null,null,null,null,null,null,null,null,null,null,null,NA,180,200,260,200,36000,52000,"[1,3]"
NA,canvas-keyboard-response,21,90842,0.0-6.0-3.2,5011,NA,NA,NA,NA,clear_screen,null,null,NA,NA,catch,l,sw,sh,223,262,205,219,166,152,spektor,null,null,null,null,null,null,null,null,null,null,null,NA,180,200,260,200,36000,52000,"[1,3]"
NA,canvas-keyboard-response,22,92706,0.0-6.0-4.2,5011,NA,NA,NA,NA,make choice,1852,1,NA,NA,catch,l,sw,sh,223,262,205,219,166,152,spektor,null,null,null,null,null,null,null,null,null,null,null,NA,180,200,260,200,36000,52000,"[1,3]"
NA,canvas-keyboard-response,23,92867,0.0-6.0-5.2,5011,NA,NA,NA,NA,clear_screen,null,null,NA,NA,catch,l,sw,sh,223,262,205,219,166,152,spektor,null,null,null,null,null,null,null,null,null,null,null,NA,180,200,260,200,36000,52000,"[1,3]"
NA,canvas-keyboard-response,24,93070,0.0-6.0-0.3,5011,NA,NA,NA,NA,pre trial waiting period,null,null,NA,NA,critical,d,c,t,162.6685,237.1485,240,164,164,240,trueblood,0.02,h,164,240,240,164,162.6685,237.1485,39360,39360,38576.5967,tc,null,null,null,null,null,null,"[3,2]"
NA,canvas-keyboard-response,25,93230,0.0-6.0-1.3,5011,NA,NA,NA,NA,clear_screen,null,null,NA,NA,critical,d,c,t,162.6685,237.1485,240,164,164,240,trueblood,0.02,h,164,240,240,164,162.6685,237.1485,39360,39360,38576.5967,tc,null,null,null,null,null,null,"[3,2]"
NA,canvas-keyboard-response,26,94569,0.0-6.0-2.3,5011,NA,NA,NA,NA,rectangles,null,null,NA,NA,critical,d,c,t,162.6685,237.1485,240,164,164,240,trueblood,0.02,h,164,240,240,164,162.6685,237.1485,39360,39360,38576.5967,tc,null,null,null,null,null,null,"[3,2]"
NA,canvas-keyboard-response,27,94731,0.0-6.0-3.3,5011,NA,NA,NA,NA,clear_screen,null,null,NA,NA,critical,d,c,t,162.6685,237.1485,240,164,164,240,trueblood,0.02,h,164,240,240,164,162.6685,237.1485,39360,39360,38576.5967,tc,null,null,null,null,null,null,"[3,2]"
NA,canvas-keyboard-response,28,96505,0.0-6.0-4.3,5011,NA,NA,NA,NA,make choice,1763,2,NA,NA,critical,d,c,t,162.6685,237.1485,240,164,164,240,trueblood,0.02,h,164,240,240,164,162.6685,237.1485,39360,39360,38576.5967,tc,null,null,null,null,null,null,"[3,2]"
NA,canvas-keyboard-response,29,96667,0.0-6.0-5.3,5011,NA,NA,NA,NA,clear_screen,null,null,NA,NA,critical,d,c,t,162.6685,237.1485,240,164,164,240,trueblood,0.02,h,164,240,240,164,162.6685,237.1485,39360,39360,38576.5967,tc,null,null,null,null,null,null,"[3,2]"
NA,canvas-keyboard-response,30,96872,0.0-6.0-0.4,5011,NA,NA,NA,NA,pre trial waiting period,null,null,NA,NA,critical,c,d,t,164,240,227.1683,158.0083,240,164,trueblood,0.09,w,240,164,164,240,227.1683,158.0083,39360,39360,35894.4834,tc,null,null,null,null,null,null,"[3,1]"
NA,canvas-keyboard-response,31,97031,0.0-6.0-1.4,5011,NA,NA,NA,NA,clear_screen,null,null,NA,NA,critical,c,d,t,164,240,227.1683,158.0083,240,164,trueblood,0.09,w,240,164,164,240,227.1683,158.0083,39360,39360,35894.4834,tc,null,null,null,null,null,null,"[3,1]"
NA,canvas-keyboard-response,32,98370,0.0-6.0-2.4,5011,NA,NA,NA,NA,rectangles,null,null,NA,NA,critical,c,d,t,164,240,227.1683,158.0083,240,164,trueblood,0.09,w,240,164,164,240,227.1683,158.0083,39360,39360,35894.4834,tc,null,null,null,null,null,null,"[3,1]"
NA,canvas-keyboard-response,33,98531,0.0-6.0-3.4,5011,NA,NA,NA,NA,clear_screen,null,null,NA,NA,critical,c,d,t,164,240,227.1683,158.0083,240,164,trueblood,0.09,w,240,164,164,240,227.1683,158.0083,39360,39360,35894.4834,tc,null,null,null,null,null,null,"[3,1]"
NA,canvas-keyboard-response,34,99881,0.0-6.0-4.4,5011,NA,NA,NA,NA,make choice,1338,1,NA,NA,critical,c,d,t,164,240,227.1683,158.0083,240,164,trueblood,0.09,w,240,164,164,240,227.1683,158.0083,39360,39360,35894.4834,tc,null,null,null,null,null,null,"[3,1]"
NA,canvas-keyboard-response,35,100043,0.0-6.0-5.4,5011,NA,NA,NA,NA,clear_screen,null,null,NA,NA,critical,c,d,t,164,240,227.1683,158.0083,240,164,trueblood,0.09,w,240,164,164,240,227.1683,158.0083,39360,39360,35894.4834,tc,null,null,null,null,null,null,"[3,1]"
NA,canvas-keyboard-response,36,100248,0.0-6.0-0.5,5011,NA,NA,NA,NA,pre trial waiting period,null,null,NA,NA,catch,sh,sw,l,161,195,219,165,229,225,spektor,null,null,null,null,null,null,null,null,null,null,null,NA,180,200,260,200,36000,52000,"[1,3]"
NA,canvas-keyboard-response,37,100408,0.0-6.0-1.5,5011,NA,NA,NA,NA,clear_screen,null,null,NA,NA,catch,sh,sw,l,161,195,219,165,229,225,spektor,null,null,null,null,null,null,null,null,null,null,null,NA,180,200,260,200,36000,52000,"[1,3]"
NA,canvas-keyboard-response,38,101746,0.0-6.0-2.5,5011,NA,NA,NA,NA,rectangles,null,null,NA,NA,catch,sh,sw,l,161,195,219,165,229,225,spektor,null,null,null,null,null,null,null,null,null,null,null,NA,180,200,260,200,36000,52000,"[1,3]"
NA,canvas-keyboard-response,39,101908,0.0-6.0-3.5,5011,NA,NA,NA,NA,clear_screen,null,null,NA,NA,catch,sh,sw,l,161,195,219,165,229,225,spektor,null,null,null,null,null,null,null,null,null,null,null,NA,180,200,260,200,36000,52000,"[1,3]"
NA,canvas-keyboard-response,40,102457,0.0-6.0-4.5,5011,NA,NA,NA,NA,make choice,536,3,NA,NA,catch,sh,sw,l,161,195,219,165,229,225,spektor,null,null,null,null,null,null,null,null,null,null,null,NA,180,200,260,200,36000,52000,"[1,3]"
NA,canvas-keyboard-response,41,102623,0.0-6.0-5.5,5011,NA,NA,NA,NA,clear_screen,null,null,NA,NA,catch,sh,sw,l,161,195,219,165,229,225,spektor,null,null,null,null,null,null,null,null,null,null,null,NA,180,200,260,200,36000,52000,"[1,3]"
NA,canvas-keyboard-response,42,102827,0.0-6.0-0.6,5011,NA,NA,NA,NA,pre trial waiting period,null,null,NA,NA,catch,sh,l,sw,199,192,236,217,207,239,spektor,null,null,null,null,null,null,null,null,null,null,null,NA,180,200,260,200,36000,52000,"[2,3]"
NA,canvas-keyboard-response,43,102987,0.0-6.0-1.6,5011,NA,NA,NA,NA,clear_screen,null,null,NA,NA,catch,sh,l,sw,199,192,236,217,207,239,spektor,null,null,null,null,null,null,null,null,null,null,null,NA,180,200,260,200,36000,52000,"[2,3]"
NA,canvas-keyboard-response,44,104327,0.0-6.0-2.6,5011,NA,NA,NA,NA,rectangles,null,null,NA,NA,catch,sh,l,sw,199,192,236,217,207,239,spektor,null,null,null,null,null,null,null,null,null,null,null,NA,180,200,260,200,36000,52000,"[2,3]"
NA,canvas-keyboard-response,45,104489,0.0-6.0-3.6,5011,NA,NA,NA,NA,clear_screen,null,null,NA,NA,catch,sh,l,sw,199,192,236,217,207,239,spektor,null,null,null,null,null,null,null,null,null,null,null,NA,180,200,260,200,36000,52000,"[2,3]"
NA,canvas-keyboard-response,46,106073,0.0-6.0-4.6,5011,NA,NA,NA,NA,make choice,1572,3,NA,NA,catch,sh,l,sw,199,192,236,217,207,239,spektor,null,null,null,null,null,null,null,null,null,null,null,NA,180,200,260,200,36000,52000,"[2,3]"
NA,canvas-keyboard-response,47,106234,0.0-6.0-5.6,5011,NA,NA,NA,NA,clear_screen,null,null,NA,NA,catch,sh,l,sw,199,192,236,217,207,239,spektor,null,null,null,null,null,null,null,null,null,null,null,NA,180,200,260,200,36000,52000,"[2,3]"
NA,canvas-keyboard-response,48,106439,0.0-6.0-0.7,5011,NA,NA,NA,NA,pre trial waiting period,null,null,NA,NA,critical,t,d,c,240,164,237.1485,162.6685,164,240,spektor,0.02,w,240,164,164,240,237.1485,162.6685,39360,39360,38576.5967,tc,null,null,null,null,null,null,"[1,3]"
NA,canvas-keyboard-response,49,106598,0.0-6.0-1.7,5011,NA,NA,NA,NA,clear_screen,null,null,NA,NA,critical,t,d,c,240,164,237.1485,162.6685,164,240,spektor,0.02,w,240,164,164,240,237.1485,162.6685,39360,39360,38576.5967,tc,null,null,null,null,null,null,"[1,3]"
NA,canvas-keyboard-response,50,107938,0.0-6.0-2.7,5011,NA,NA,NA,NA,rectangles,null,null,NA,NA,critical,t,d,c,240,164,237.1485,162.6685,164,240,spektor,0.02,w,240,164,164,240,237.1485,162.6685,39360,39360,38576.5967,tc,null,null,null,null,null,null,"[1,3]"
NA,canvas-keyboard-response,51,108101,0.0-6.0-3.7,5011,NA,NA,NA,NA,clear_screen,null,null,NA,NA,critical,t,d,c,240,164,237.1485,162.6685,164,240,spektor,0.02,w,240,164,164,240,237.1485,162.6685,39360,39360,38576.5967,tc,null,null,null,null,null,null,"[1,3]"
NA,canvas-keyboard-response,52,110233,0.0-6.0-4.7,5011,NA,NA,NA,NA,make choice,2122,3,NA,NA,critical,t,d,c,240,164,237.1485,162.6685,164,240,spektor,0.02,w,240,164,164,240,237.1485,162.6685,39360,39360,38576.5967,tc,null,null,null,null,null,null,"[1,3]"
NA,canvas-keyboard-response,53,110395,0.0-6.0-5.7,5011,NA,NA,NA,NA,clear_screen,null,null,NA,NA,critical,t,d,c,240,164,237.1485,162.6685,164,240,spektor,0.02,w,240,164,164,240,237.1485,162.6685,39360,39360,38576.5967,tc,null,null,null,null,null,null,"[1,3]"
NA,canvas-keyboard-response,54,110600,0.0-6.0-0.8,5011,NA,NA,NA,NA,pre trial waiting period,null,null,NA,NA,critical,t,c,d,240,164,164,240,227.1683,158.0083,spektor,0.09,w,240,164,164,240,227.1683,158.0083,39360,39360,35894.4834,dc,null,null,null,null,null,null,"[3,2]"
NA,canvas-keyboard-response,55,110762,0.0-6.0-1.8,5011,NA,NA,NA,NA,clear_screen,null,null,NA,NA,critical,t,c,d,240,164,164,240,227.1683,158.0083,spektor,0.09,w,240,164,164,240,227.1683,158.0083,39360,39360,35894.4834,dc,null,null,null,null,null,null,"[3,2]"
NA,canvas-keyboard-response,56,112103,0.0-6.0-2.8,5011,NA,NA,NA,NA,rectangles,null,null,NA,NA,critical,t,c,d,240,164,164,240,227.1683,158.0083,spektor,0.09,w,240,164,164,240,227.1683,158.0083,39360,39360,35894.4834,dc,null,null,null,null,null,null,"[3,2]"
NA,canvas-keyboard-response,57,112265,0.0-6.0-3.8,5011,NA,NA,NA,NA,clear_screen,null,null,NA,NA,critical,t,c,d,240,164,164,240,227.1683,158.0083,spektor,0.09,w,240,164,164,240,227.1683,158.0083,39360,39360,35894.4834,dc,null,null,null,null,null,null,"[3,2]"
NA,canvas-keyboard-response,58,113610,0.0-6.0-4.8,5011,NA,NA,NA,NA,make choice,1331,2,NA,NA,critical,t,c,d,240,164,164,240,227.1683,158.0083,spektor,0.09,w,240,164,164,240,227.1683,158.0083,39360,39360,35894.4834,dc,null,null,null,null,null,null,"[3,2]"
NA,canvas-keyboard-response,59,113772,0.0-6.0-5.8,5011,NA,NA,NA,NA,clear_screen,null,null,NA,NA,critical,t,c,d,240,164,164,240,227.1683,158.0083,spektor,0.09,w,240,164,164,240,227.1683,158.0083,39360,39360,35894.4834,dc,null,null,null,null,null,null,"[3,2]"
NA,canvas-keyboard-response,60,113978,0.0-6.0-0.9,5011,NA,NA,NA,NA,pre trial waiting period,null,null,NA,NA,critical,c,d,t,164,240,240,164,240,164,spektor,0,w,240,164,164,240,240,164,39360,39360,39360,tc,null,null,null,null,null,null,"[3,1]"
NA,canvas-keyboard-response,61,114138,0.0-6.0-1.9,5011,NA,NA,NA,NA,clear_screen,null,null,NA,NA,critical,c,d,t,164,240,240,164,240,164,spektor,0,w,240,164,164,240,240,164,39360,39360,39360,tc,null,null,null,null,null,null,"[3,1]"
NA,canvas-keyboard-response,62,115477,0.0-6.0-2.9,5011,NA,NA,NA,NA,rectangles,null,null,NA,NA,critical,c,d,t,164,240,240,164,240,164,spektor,0,w,240,164,164,240,240,164,39360,39360,39360,tc,null,null,null,null,null,null,"[3,1]"
NA,canvas-keyboard-response,63,115640,0.0-6.0-3.9,5011,NA,NA,NA,NA,clear_screen,null,null,NA,NA,critical,c,d,t,164,240,240,164,240,164,spektor,0,w,240,164,164,240,240,164,39360,39360,39360,tc,null,null,null,null,null,null,"[3,1]"
NA,canvas-keyboard-response,64,116777,0.0-6.0-4.9,5011,NA,NA,NA,NA,make choice,1124,1,NA,NA,critical,c,d,t,164,240,240,164,240,164,spektor,0,w,240,164,164,240,240,164,39360,39360,39360,tc,null,null,null,null,null,null,"[3,1]"
NA,canvas-keyboard-response,65,116939,0.0-6.0-5.9,5011,NA,NA,NA,NA,clear_screen,null,null,NA,NA,critical,c,d,t,164,240,240,164,240,164,spektor,0,w,240,164,164,240,240,164,39360,39360,39360,tc,null,null,null,null,null,null,"[3,1]"
NA,canvas-keyboard-response,66,117146,0.0-6.0-0.10,5011,NA,NA,NA,NA,pre trial waiting period,null,null,NA,NA,catch,l,sw,sh,251,220,182,167,227,169,trueblood,null,null,null,null,null,null,null,null,null,null,null,NA,180,200,260,200,36000,52000,"[1,2]"
NA,canvas-keyboard-response,67,117305,0.0-6.0-1.10,5011,NA,NA,NA,NA,clear_screen,null,null,NA,NA,catch,l,sw,sh,251,220,182,167,227,169,trueblood,null,null,null,null,null,null,null,null,null,null,null,NA,180,200,260,200,36000,52000,"[1,2]"
NA,canvas-keyboard-response,68,118647,0.0-6.0-2.10,5011,NA,NA,NA,NA,rectangles,null,null,NA,NA,catch,l,sw,sh,251,220,182,167,227,169,trueblood,null,null,null,null,null,null,null,null,null,null,null,NA,180,200,260,200,36000,52000,"[1,2]"
NA,canvas-keyboard-response,69,118811,0.0-6.0-3.10,5011,NA,NA,NA,NA,clear_screen,null,null,NA,NA,catch,l,sw,sh,251,220,182,167,227,169,trueblood,null,null,null,null,null,null,null,null,null,null,null,NA,180,200,260,200,36000,52000,"[1,2]"
NA,canvas-keyboard-response,70,120009,0.0-6.0-4.10,5011,NA,NA,NA,NA,make choice,1186,1,NA,NA,catch,l,sw,sh,251,220,182,167,227,169,trueblood,null,null,null,null,null,null,null,null,null,null,null,NA,180,200,260,200,36000,52000,"[1,2]"
NA,canvas-keyboard-response,71,120171,0.0-6.0-5.10,5011,NA,NA,NA,NA,clear_screen,null,null,NA,NA,catch,l,sw,sh,251,220,182,167,227,169,trueblood,null,null,null,null,null,null,null,null,null,null,null,NA,180,200,260,200,36000,52000,"[1,2]"
NA,canvas-keyboard-response,72,120377,0.0-6.0-0.11,5011,NA,NA,NA,NA,pre trial waiting period,null,null,NA,NA,critical,d,c,t,232.8713,160.6713,164,240,240,164,spektor,0.05,w,240,164,164,240,232.8713,160.6713,39360,39360,37415.7294,td,null,null,null,null,null,null,"[3,1]"
NA,canvas-keyboard-response,73,120536,0.0-6.0-1.11,5011,NA,NA,NA,NA,clear_screen,null,null,NA,NA,critical,d,c,t,232.8713,160.6713,164,240,240,164,spektor,0.05,w,240,164,164,240,232.8713,160.6713,39360,39360,37415.7294,td,null,null,null,null,null,null,"[3,1]"
NA,canvas-keyboard-response,74,121875,0.0-6.0-2.11,5011,NA,NA,NA,NA,rectangles,null,null,NA,NA,critical,d,c,t,232.8713,160.6713,164,240,240,164,spektor,0.05,w,240,164,164,240,232.8713,160.6713,39360,39360,37415.7294,td,null,null,null,null,null,null,"[3,1]"
NA,canvas-keyboard-response,75,122038,0.0-6.0-3.11,5011,NA,NA,NA,NA,clear_screen,null,null,NA,NA,critical,d,c,t,232.8713,160.6713,164,240,240,164,spektor,0.05,w,240,164,164,240,232.8713,160.6713,39360,39360,37415.7294,td,null,null,null,null,null,null,"[3,1]"
NA,canvas-keyboard-response,76,123712,0.0-6.0-4.11,5011,NA,NA,NA,NA,make choice,1662,1,NA,NA,critical,d,c,t,232.8713,160.6713,164,240,240,164,spektor,0.05,w,240,164,164,240,232.8713,160.6713,39360,39360,37415.7294,td,null,null,null,null,null,null,"[3,1]"
NA,canvas-keyboard-response,77,123877,0.0-6.0-5.11,5011,NA,NA,NA,NA,clear_screen,null,null,NA,NA,critical,d,c,t,232.8713,160.6713,164,240,240,164,spektor,0.05,w,240,164,164,240,232.8713,160.6713,39360,39360,37415.7294,td,null,null,null,null,null,null,"[3,1]"
NA,canvas-keyboard-response,78,124084,0.0-6.0-0.12,5011,NA,NA,NA,NA,pre trial waiting period,null,null,NA,NA,critical,t,d,c,240,164,220.0396,154.6796,164,240,spektor,0.14,w,240,164,164,240,220.0396,154.6796,39360,39360,34035.6388,tc,null,null,null,null,null,null,"[1,3]"
NA,canvas-keyboard-response,79,124242,0.0-6.0-1.12,5011,NA,NA,NA,NA,clear_screen,null,null,NA,NA,critical,t,d,c,240,164,220.0396,154.6796,164,240,spektor,0.14,w,240,164,164,240,220.0396,154.6796,39360,39360,34035.6388,tc,null,null,null,null,null,null,"[1,3]"
NA,canvas-keyboard-response,80,125583,0.0-6.0-2.12,5011,NA,NA,NA,NA,rectangles,null,null,NA,NA,critical,t,d,c,240,164,220.0396,154.6796,164,240,spektor,0.14,w,240,164,164,240,220.0396,154.6796,39360,39360,34035.6388,tc,null,null,null,null,null,null,"[1,3]"
NA,canvas-keyboard-response,81,125747,0.0-6.0-3.12,5011,NA,NA,NA,NA,clear_screen,null,null,NA,NA,critical,t,d,c,240,164,220.0396,154.6796,164,240,spektor,0.14,w,240,164,164,240,220.0396,154.6796,39360,39360,34035.6388,tc,null,null,null,null,null,null,"[1,3]"
NA,canvas-keyboard-response,82,127360,0.0-6.0-4.12,5011,NA,NA,NA,NA,make choice,1600,3,NA,NA,critical,t,d,c,240,164,220.0396,154.6796,164,240,spektor,0.14,w,240,164,164,240,220.0396,154.6796,39360,39360,34035.6388,tc,null,null,null,null,null,null,"[1,3]"
NA,canvas-keyboard-response,83,127523,0.0-6.0-5.12,5011,NA,NA,NA,NA,clear_screen,null,null,NA,NA,critical,t,d,c,240,164,220.0396,154.6796,164,240,spektor,0.14,w,240,164,164,240,220.0396,154.6796,39360,39360,34035.6388,tc,null,null,null,null,null,null,"[1,3]"
NA,canvas-keyboard-response,84,127730,0.0-6.0-0.13,5011,NA,NA,NA,NA,pre trial waiting period,null,null,NA,NA,critical,c,t,d,164,240,240,164,237.1485,162.6685,spektor,0.02,w,240,164,164,240,237.1485,162.6685,39360,39360,38576.5967,dc,null,null,null,null,null,null,"[3,1]"
NA,canvas-keyboard-response,85,127890,0.0-6.0-1.13,5011,NA,NA,NA,NA,clear_screen,null,null,NA,NA,critical,c,t,d,164,240,240,164,237.1485,162.6685,spektor,0.02,w,240,164,164,240,237.1485,162.6685,39360,39360,38576.5967,dc,null,null,null,null,null,null,"[3,1]"
NA,canvas-keyboard-response,86,129230,0.0-6.0-2.13,5011,NA,NA,NA,NA,rectangles,null,null,NA,NA,critical,c,t,d,164,240,240,164,237.1485,162.6685,spektor,0.02,w,240,164,164,240,237.1485,162.6685,39360,39360,38576.5967,dc,null,null,null,null,null,null,"[3,1]"
NA,canvas-keyboard-response,87,129394,0.0-6.0-3.13,5011,NA,NA,NA,NA,clear_screen,null,null,NA,NA,critical,c,t,d,164,240,240,164,237.1485,162.6685,spektor,0.02,w,240,164,164,240,237.1485,162.6685,39360,39360,38576.5967,dc,null,null,null,null,null,null,"[3,1]"
NA,canvas-keyboard-response,88,130568,0.0-6.0-4.13,5011,NA,NA,NA,NA,make choice,1162,1,NA,NA,critical,c,t,d,164,240,240,164,237.1485,162.6685,spektor,0.02,w,240,164,164,240,237.1485,162.6685,39360,39360,38576.5967,dc,null,null,null,null,null,null,"[3,1]"
NA,canvas-keyboard-response,89,130733,0.0-6.0-5.13,5011,NA,NA,NA,NA,clear_screen,null,null,NA,NA,critical,c,t,d,164,240,240,164,237.1485,162.6685,spektor,0.02,w,240,164,164,240,237.1485,162.6685,39360,39360,38576.5967,dc,null,null,null,null,null,null,"[3,1]"
NA,canvas-keyboard-response,90,130940,0.0-6.0-0.14,5011,NA,NA,NA,NA,pre trial waiting period,null,null,NA,NA,critical,c,d,t,164,240,227.1683,158.0083,240,164,trueblood,0.09,w,240,164,164,240,227.1683,158.0083,39360,39360,35894.4834,td,null,null,null,null,null,null,"[3,2]"
NA,canvas-keyboard-response,91,131099,0.0-6.0-1.14,5011,NA,NA,NA,NA,clear_screen,null,null,NA,NA,critical,c,d,t,164,240,227.1683,158.0083,240,164,trueblood,0.09,w,240,164,164,240,227.1683,158.0083,39360,39360,35894.4834,td,null,null,null,null,null,null,"[3,2]"
NA,canvas-keyboard-response,92,132442,0.0-6.0-2.14,5011,NA,NA,NA,NA,rectangles,null,null,NA,NA,critical,c,d,t,164,240,227.1683,158.0083,240,164,trueblood,0.09,w,240,164,164,240,227.1683,158.0083,39360,39360,35894.4834,td,null,null,null,null,null,null,"[3,2]"
NA,canvas-keyboard-response,93,132605,0.0-6.0-3.14,5011,NA,NA,NA,NA,clear_screen,null,null,NA,NA,critical,c,d,t,164,240,227.1683,158.0083,240,164,trueblood,0.09,w,240,164,164,240,227.1683,158.0083,39360,39360,35894.4834,td,null,null,null,null,null,null,"[3,2]"
NA,canvas-keyboard-response,94,133465,0.0-6.0-4.14,5011,NA,NA,NA,NA,make choice,846,3,NA,NA,critical,c,d,t,164,240,227.1683,158.0083,240,164,trueblood,0.09,w,240,164,164,240,227.1683,158.0083,39360,39360,35894.4834,td,null,null,null,null,null,null,"[3,2]"
NA,canvas-keyboard-response,95,133629,0.0-6.0-5.14,5011,NA,NA,NA,NA,clear_screen,null,null,NA,NA,critical,c,d,t,164,240,227.1683,158.0083,240,164,trueblood,0.09,w,240,164,164,240,227.1683,158.0083,39360,39360,35894.4834,td,null,null,null,null,null,null,"[3,2]"
NA,canvas-keyboard-response,96,133836,0.0-6.0-0.15,5011,NA,NA,NA,NA,pre trial waiting period,null,null,NA,NA,critical,t,c,d,240,164,164,240,220.0396,154.6796,trueblood,0.14,w,240,164,164,240,220.0396,154.6796,39360,39360,34035.6388,dc,null,null,null,null,null,null,"[3,2]"
NA,canvas-keyboard-response,97,133996,0.0-6.0-1.15,5011,NA,NA,NA,NA,clear_screen,null,null,NA,NA,critical,t,c,d,240,164,164,240,220.0396,154.6796,trueblood,0.14,w,240,164,164,240,220.0396,154.6796,39360,39360,34035.6388,dc,null,null,null,null,null,null,"[3,2]"
NA,canvas-keyboard-response,98,135336,0.0-6.0-2.15,5011,NA,NA,NA,NA,rectangles,null,null,NA,NA,critical,t,c,d,240,164,164,240,220.0396,154.6796,trueblood,0.14,w,240,164,164,240,220.0396,154.6796,39360,39360,34035.6388,dc,null,null,null,null,null,null,"[3,2]"
NA,canvas-keyboard-response,99,135500,0.0-6.0-3.15,5011,NA,NA,NA,NA,clear_screen,null,null,NA,NA,critical,t,c,d,240,164,164,240,220.0396,154.6796,trueblood,0.14,w,240,164,164,240,220.0396,154.6796,39360,39360,34035.6388,dc,null,null,null,null,null,null,"[3,2]"
NA,canvas-keyboard-response,100,136593,0.0-6.0-4.15,5011,NA,NA,NA,NA,make choice,1079,2,NA,NA,critical,t,c,d,240,164,164,240,220.0396,154.6796,trueblood,0.14,w,240,164,164,240,220.0396,154.6796,39360,39360,34035.6388,dc,null,null,null,null,null,null,"[3,2]"
NA,canvas-keyboard-response,101,136755,0.0-6.0-5.15,5011,NA,NA,NA,NA,clear_screen,null,null,NA,NA,critical,t,c,d,240,164,164,240,220.0396,154.6796,trueblood,0.14,w,240,164,164,240,220.0396,154.6796,39360,39360,34035.6388,dc,null,null,null,null,null,null,"[3,2]"
NA,canvas-keyboard-response,102,136960,0.0-6.0-0.16,5011,NA,NA,NA,NA,pre trial waiting period,null,null,NA,NA,catch,sw,l,sh,180,200,224,272,187,179,spektor,null,null,null,null,null,null,null,null,null,null,null,NA,180,200,260,200,36000,52000,"[2,3]"
NA,canvas-keyboard-response,103,137118,0.0-6.0-1.16,5011,NA,NA,NA,NA,clear_screen,null,null,NA,NA,catch,sw,l,sh,180,200,224,272,187,179,spektor,null,null,null,null,null,null,null,null,null,null,null,NA,180,200,260,200,36000,52000,"[2,3]"
NA,canvas-keyboard-response,104,138459,0.0-6.0-2.16,5011,NA,NA,NA,NA,rectangles,null,null,NA,NA,catch,sw,l,sh,180,200,224,272,187,179,spektor,null,null,null,null,null,null,null,null,null,null,null,NA,180,200,260,200,36000,52000,"[2,3]"
NA,canvas-keyboard-response,105,138625,0.0-6.0-3.16,5011,NA,NA,NA,NA,clear_screen,null,null,NA,NA,catch,sw,l,sh,180,200,224,272,187,179,spektor,null,null,null,null,null,null,null,null,null,null,null,NA,180,200,260,200,36000,52000,"[2,3]"
NA,canvas-keyboard-response,106,139865,0.0-6.0-4.16,5011,NA,NA,NA,NA,make choice,1225,2,NA,NA,catch,sw,l,sh,180,200,224,272,187,179,spektor,null,null,null,null,null,null,null,null,null,null,null,NA,180,200,260,200,36000,52000,"[2,3]"
NA,canvas-keyboard-response,107,140029,0.0-6.0-5.16,5011,NA,NA,NA,NA,clear_screen,null,null,NA,NA,catch,sw,l,sh,180,200,224,272,187,179,spektor,null,null,null,null,null,null,null,null,null,null,null,NA,180,200,260,200,36000,52000,"[2,3]"
NA,canvas-keyboard-response,108,140237,0.0-6.0-0.17,5011,NA,NA,NA,NA,pre trial waiting period,null,null,NA,NA,critical,t,d,c,164,240,154.6796,220.0396,240,164,trueblood,0.14,h,164,240,240,164,154.6796,220.0396,39360,39360,34035.6388,td,null,null,null,null,null,null,"[1,2]"
NA,canvas-keyboard-response,109,140393,0.0-6.0-1.17,5011,NA,NA,NA,NA,clear_screen,null,null,NA,NA,critical,t,d,c,164,240,154.6796,220.0396,240,164,trueblood,0.14,h,164,240,240,164,154.6796,220.0396,39360,39360,34035.6388,td,null,null,null,null,null,null,"[1,2]"
NA,canvas-keyboard-response,110,141734,0.0-6.0-2.17,5011,NA,NA,NA,NA,rectangles,null,null,NA,NA,critical,t,d,c,164,240,154.6796,220.0396,240,164,trueblood,0.14,h,164,240,240,164,154.6796,220.0396,39360,39360,34035.6388,td,null,null,null,null,null,null,"[1,2]"
NA,canvas-keyboard-response,111,141900,0.0-6.0-3.17,5011,NA,NA,NA,NA,clear_screen,null,null,NA,NA,critical,t,d,c,164,240,154.6796,220.0396,240,164,trueblood,0.14,h,164,240,240,164,154.6796,220.0396,39360,39360,34035.6388,td,null,null,null,null,null,null,"[1,2]"
NA,canvas-keyboard-response,112,142665,0.0-6.0-4.17,5011,NA,NA,NA,NA,make choice,749,1,NA,NA,critical,t,d,c,164,240,154.6796,220.0396,240,164,trueblood,0.14,h,164,240,240,164,154.6796,220.0396,39360,39360,34035.6388,td,null,null,null,null,null,null,"[1,2]"
NA,canvas-keyboard-response,113,142829,0.0-6.0-5.17,5011,NA,NA,NA,NA,clear_screen,null,null,NA,NA,critical,t,d,c,164,240,154.6796,220.0396,240,164,trueblood,0.14,h,164,240,240,164,154.6796,220.0396,39360,39360,34035.6388,td,null,null,null,null,null,null,"[1,2]"
NA,canvas-keyboard-response,114,143038,0.0-6.0-0.18,5011,NA,NA,NA,NA,pre trial waiting period,null,null,NA,NA,critical,d,t,c,154.6796,220.0396,164,240,240,164,trueblood,0.14,h,164,240,240,164,154.6796,220.0396,39360,39360,34035.6388,dc,null,null,null,null,null,null,"[1,3]"
NA,canvas-keyboard-response,115,143197,0.0-6.0-1.18,5011,NA,NA,NA,NA,clear_screen,null,null,NA,NA,critical,d,t,c,154.6796,220.0396,164,240,240,164,trueblood,0.14,h,164,240,240,164,154.6796,220.0396,39360,39360,34035.6388,dc,null,null,null,null,null,null,"[1,3]"
NA,canvas-keyboard-response,116,144542,0.0-6.0-2.18,5011,NA,NA,NA,NA,rectangles,null,null,NA,NA,critical,d,t,c,154.6796,220.0396,164,240,240,164,trueblood,0.14,h,164,240,240,164,154.6796,220.0396,39360,39360,34035.6388,dc,null,null,null,null,null,null,"[1,3]"
NA,canvas-keyboard-response,117,144708,0.0-6.0-3.18,5011,NA,NA,NA,NA,clear_screen,null,null,NA,NA,critical,d,t,c,154.6796,220.0396,164,240,240,164,trueblood,0.14,h,164,240,240,164,154.6796,220.0396,39360,39360,34035.6388,dc,null,null,null,null,null,null,"[1,3]"
NA,canvas-keyboard-response,118,146336,0.0-6.0-4.18,5011,NA,NA,NA,NA,make choice,1613,3,NA,NA,critical,d,t,c,154.6796,220.0396,164,240,240,164,trueblood,0.14,h,164,240,240,164,154.6796,220.0396,39360,39360,34035.6388,dc,null,null,null,null,null,null,"[1,3]"
NA,canvas-keyboard-response,119,146502,0.0-6.0-5.18,5011,NA,NA,NA,NA,clear_screen,null,null,NA,NA,critical,d,t,c,154.6796,220.0396,164,240,240,164,trueblood,0.14,h,164,240,240,164,154.6796,220.0396,39360,39360,34035.6388,dc,null,null,null,null,null,null,"[1,3]"
NA,canvas-keyboard-response,120,146710,0.0-6.0-0.19,5011,NA,NA,NA,NA,pre trial waiting period,null,null,NA,NA,critical,d,c,t,232.8713,160.6713,164,240,240,164,trueblood,0.05,w,240,164,164,240,232.8713,160.6713,39360,39360,37415.7294,td,null,null,null,null,null,null,"[3,1]"
NA,canvas-keyboard-response,121,146869,0.0-6.0-1.19,5011,NA,NA,NA,NA,clear_screen,null,null,NA,NA,critical,d,c,t,232.8713,160.6713,164,240,240,164,trueblood,0.05,w,240,164,164,240,232.8713,160.6713,39360,39360,37415.7294,td,null,null,null,null,null,null,"[3,1]"
NA,canvas-keyboard-response,122,148212,0.0-6.0-2.19,5011,NA,NA,NA,NA,rectangles,null,null,NA,NA,critical,d,c,t,232.8713,160.6713,164,240,240,164,trueblood,0.05,w,240,164,164,240,232.8713,160.6713,39360,39360,37415.7294,td,null,null,null,null,null,null,"[3,1]"
NA,canvas-keyboard-response,123,148377,0.0-6.0-3.19,5011,NA,NA,NA,NA,clear_screen,null,null,NA,NA,critical,d,c,t,232.8713,160.6713,164,240,240,164,trueblood,0.05,w,240,164,164,240,232.8713,160.6713,39360,39360,37415.7294,td,null,null,null,null,null,null,"[3,1]"
NA,canvas-keyboard-response,124,149890,0.0-6.0-4.19,5011,NA,NA,NA,NA,make choice,1497,3,NA,NA,critical,d,c,t,232.8713,160.6713,164,240,240,164,trueblood,0.05,w,240,164,164,240,232.8713,160.6713,39360,39360,37415.7294,td,null,null,null,null,null,null,"[3,1]"
NA,canvas-keyboard-response,125,150065,0.0-6.0-5.19,5011,NA,NA,NA,NA,clear_screen,null,null,NA,NA,critical,d,c,t,232.8713,160.6713,164,240,240,164,trueblood,0.05,w,240,164,164,240,232.8713,160.6713,39360,39360,37415.7294,td,null,null,null,null,null,null,"[3,1]"
NA,canvas-keyboard-response,126,150284,0.0-6.0-0.20,5011,NA,NA,NA,NA,pre trial waiting period,null,null,NA,NA,catch,l,sw,sh,253,173,149,172,187,152,trueblood,null,null,null,null,null,null,null,null,null,null,null,NA,180,200,260,200,36000,52000,"[1,3]"
NA,canvas-keyboard-response,127,150446,0.0-6.0-1.20,5011,NA,NA,NA,NA,clear_screen,null,null,NA,NA,catch,l,sw,sh,253,173,149,172,187,152,trueblood,null,null,null,null,null,null,null,null,null,null,null,NA,180,200,260,200,36000,52000,"[1,3]"
NA,canvas-keyboard-response,128,151793,0.0-6.0-2.20,5011,NA,NA,NA,NA,rectangles,null,null,NA,NA,catch,l,sw,sh,253,173,149,172,187,152,trueblood,null,null,null,null,null,null,null,null,null,null,null,NA,180,200,260,200,36000,52000,"[1,3]"
NA,canvas-keyboard-response,129,151961,0.0-6.0-3.20,5011,NA,NA,NA,NA,clear_screen,null,null,NA,NA,catch,l,sw,sh,253,173,149,172,187,152,trueblood,null,null,null,null,null,null,null,null,null,null,null,NA,180,200,260,200,36000,52000,"[1,3]"
NA,canvas-keyboard-response,130,152736,0.0-6.0-4.20,5011,NA,NA,NA,NA,make choice,760,1,NA,NA,catch,l,sw,sh,253,173,149,172,187,152,trueblood,null,null,null,null,null,null,null,null,null,null,null,NA,180,200,260,200,36000,52000,"[1,3]"
NA,canvas-keyboard-response,131,152903,0.0-6.0-5.20,5011,NA,NA,NA,NA,clear_screen,null,null,NA,NA,catch,l,sw,sh,253,173,149,172,187,152,trueblood,null,null,null,null,null,null,null,null,null,null,null,NA,180,200,260,200,36000,52000,"[1,3]"
NA,canvas-keyboard-response,132,153113,0.0-6.0-0.21,5011,NA,NA,NA,NA,pre trial waiting period,null,null,NA,NA,catch,sw,sh,l,180,200,186,207,215,263,spektor,null,null,null,null,null,null,null,null,null,null,null,NA,180,200,260,200,36000,52000,"[2,3]"
NA,canvas-keyboard-response,133,153273,0.0-6.0-1.21,5011,NA,NA,NA,NA,clear_screen,null,null,NA,NA,catch,sw,sh,l,180,200,186,207,215,263,spektor,null,null,null,null,null,null,null,null,null,null,null,NA,180,200,260,200,36000,52000,"[2,3]"
NA,canvas-keyboard-response,134,154615,0.0-6.0-2.21,5011,NA,NA,NA,NA,rectangles,null,null,NA,NA,catch,sw,sh,l,180,200,186,207,215,263,spektor,null,null,null,null,null,null,null,null,null,null,null,NA,180,200,260,200,36000,52000,"[2,3]"
NA,canvas-keyboard-response,135,154784,0.0-6.0-3.21,5011,NA,NA,NA,NA,clear_screen,null,null,NA,NA,catch,sw,sh,l,180,200,186,207,215,263,spektor,null,null,null,null,null,null,null,null,null,null,null,NA,180,200,260,200,36000,52000,"[2,3]"
NA,canvas-keyboard-response,136,155089,0.0-6.0-4.21,5011,NA,NA,NA,NA,make choice,290,3,NA,NA,catch,sw,sh,l,180,200,186,207,215,263,spektor,null,null,null,null,null,null,null,null,null,null,null,NA,180,200,260,200,36000,52000,"[2,3]"
NA,canvas-keyboard-response,137,155260,0.0-6.0-5.21,5011,NA,NA,NA,NA,clear_screen,null,null,NA,NA,catch,sw,sh,l,180,200,186,207,215,263,spektor,null,null,null,null,null,null,null,null,null,null,null,NA,180,200,260,200,36000,52000,"[2,3]"
NA,canvas-keyboard-response,138,155471,0.0-6.0-0.22,5011,NA,NA,NA,NA,pre trial waiting period,null,null,NA,NA,catch,l,sw,sh,269,225,192,216,184,168,trueblood,null,null,null,null,null,null,null,null,null,null,null,NA,180,200,260,200,36000,52000,"[1,3]"
NA,canvas-keyboard-response,139,155631,0.0-6.0-1.22,5011,NA,NA,NA,NA,clear_screen,null,null,NA,NA,catch,l,sw,sh,269,225,192,216,184,168,trueblood,null,null,null,null,null,null,null,null,null,null,null,NA,180,200,260,200,36000,52000,"[1,3]"
NA,canvas-keyboard-response,140,156973,0.0-6.0-2.22,5011,NA,NA,NA,NA,rectangles,null,null,NA,NA,catch,l,sw,sh,269,225,192,216,184,168,trueblood,null,null,null,null,null,null,null,null,null,null,null,NA,180,200,260,200,36000,52000,"[1,3]"
NA,canvas-keyboard-response,141,157140,0.0-6.0-3.22,5011,NA,NA,NA,NA,clear_screen,null,null,NA,NA,catch,l,sw,sh,269,225,192,216,184,168,trueblood,null,null,null,null,null,null,null,null,null,null,null,NA,180,200,260,200,36000,52000,"[1,3]"
NA,canvas-keyboard-response,142,157456,0.0-6.0-4.22,5011,NA,NA,NA,NA,make choice,300,1,NA,NA,catch,l,sw,sh,269,225,192,216,184,168,trueblood,null,null,null,null,null,null,null,null,null,null,null,NA,180,200,260,200,36000,52000,"[1,3]"
NA,canvas-keyboard-response,143,157624,0.0-6.0-5.22,5011,NA,NA,NA,NA,clear_screen,null,null,NA,NA,catch,l,sw,sh,269,225,192,216,184,168,trueblood,null,null,null,null,null,null,null,null,null,null,null,NA,180,200,260,200,36000,52000,"[1,3]"
NA,canvas-keyboard-response,144,157835,0.0-6.0-0.23,5011,NA,NA,NA,NA,pre trial waiting period,null,null,NA,NA,critical,t,d,c,164,240,160.6713,232.8713,240,164,trueblood,0.05,h,164,240,240,164,160.6713,232.8713,39360,39360,37415.7294,dc,null,null,null,null,null,null,"[2,3]"
NA,canvas-keyboard-response,145,157996,0.0-6.0-1.23,5011,NA,NA,NA,NA,clear_screen,null,null,NA,NA,critical,t,d,c,164,240,160.6713,232.8713,240,164,trueblood,0.05,h,164,240,240,164,160.6713,232.8713,39360,39360,37415.7294,dc,null,null,null,null,null,null,"[2,3]"
NA,canvas-keyboard-response,146,159341,0.0-6.0-2.23,5011,NA,NA,NA,NA,rectangles,null,null,NA,NA,critical,t,d,c,164,240,160.6713,232.8713,240,164,trueblood,0.05,h,164,240,240,164,160.6713,232.8713,39360,39360,37415.7294,dc,null,null,null,null,null,null,"[2,3]"
NA,canvas-keyboard-response,147,159508,0.0-6.0-3.23,5011,NA,NA,NA,NA,clear_screen,null,null,NA,NA,critical,t,d,c,164,240,160.6713,232.8713,240,164,trueblood,0.05,h,164,240,240,164,160.6713,232.8713,39360,39360,37415.7294,dc,null,null,null,null,null,null,"[2,3]"
NA,canvas-keyboard-response,148,160033,0.0-6.0-4.23,5011,NA,NA,NA,NA,make choice,508,2,NA,NA,critical,t,d,c,164,240,160.6713,232.8713,240,164,trueblood,0.05,h,164,240,240,164,160.6713,232.8713,39360,39360,37415.7294,dc,null,null,null,null,null,null,"[2,3]"
NA,canvas-keyboard-response,149,160198,0.0-6.0-5.23,5011,NA,NA,NA,NA,clear_screen,null,null,NA,NA,critical,t,d,c,164,240,160.6713,232.8713,240,164,trueblood,0.05,h,164,240,240,164,160.6713,232.8713,39360,39360,37415.7294,dc,null,null,null,null,null,null,"[2,3]"
NA,canvas-keyboard-response,150,160410,0.0-6.0-0.24,5011,NA,NA,NA,NA,pre trial waiting period,null,null,NA,NA,critical,c,d,t,164,240,220.0396,154.6796,240,164,trueblood,0.14,w,240,164,164,240,220.0396,154.6796,39360,39360,34035.6388,td,null,null,null,null,null,null,"[3,2]"
NA,canvas-keyboard-response,151,160570,0.0-6.0-1.24,5011,NA,NA,NA,NA,clear_screen,null,null,NA,NA,critical,c,d,t,164,240,220.0396,154.6796,240,164,trueblood,0.14,w,240,164,164,240,220.0396,154.6796,39360,39360,34035.6388,td,null,null,null,null,null,null,"[3,2]"
NA,canvas-keyboard-response,152,161912,0.0-6.0-2.24,5011,NA,NA,NA,NA,rectangles,null,null,NA,NA,critical,c,d,t,164,240,220.0396,154.6796,240,164,trueblood,0.14,w,240,164,164,240,220.0396,154.6796,39360,39360,34035.6388,td,null,null,null,null,null,null,"[3,2]"
NA,canvas-keyboard-response,153,162077,0.0-6.0-3.24,5011,NA,NA,NA,NA,clear_screen,null,null,NA,NA,critical,c,d,t,164,240,220.0396,154.6796,240,164,trueblood,0.14,w,240,164,164,240,220.0396,154.6796,39360,39360,34035.6388,td,null,null,null,null,null,null,"[3,2]"
NA,canvas-keyboard-response,154,163104,0.0-6.0-4.24,5011,NA,NA,NA,NA,make choice,1010,3,NA,NA,critical,c,d,t,164,240,220.0396,154.6796,240,164,trueblood,0.14,w,240,164,164,240,220.0396,154.6796,39360,39360,34035.6388,td,null,null,null,null,null,null,"[3,2]"
NA,canvas-keyboard-response,155,163270,0.0-6.0-5.24,5011,NA,NA,NA,NA,clear_screen,null,null,NA,NA,critical,c,d,t,164,240,220.0396,154.6796,240,164,trueblood,0.14,w,240,164,164,240,220.0396,154.6796,39360,39360,34035.6388,td,null,null,null,null,null,null,"[3,2]"
NA,canvas-keyboard-response,156,163481,0.0-6.0-0.25,5011,NA,NA,NA,NA,pre trial waiting period,null,null,NA,NA,critical,d,t,c,220.0396,154.6796,240,164,164,240,spektor,0.14,w,240,164,164,240,220.0396,154.6796,39360,39360,34035.6388,dc,null,null,null,null,null,null,"[1,3]"
NA,canvas-keyboard-response,157,163640,0.0-6.0-1.25,5011,NA,NA,NA,NA,clear_screen,null,null,NA,NA,critical,d,t,c,220.0396,154.6796,240,164,164,240,spektor,0.14,w,240,164,164,240,220.0396,154.6796,39360,39360,34035.6388,dc,null,null,null,null,null,null,"[1,3]"
NA,canvas-keyboard-response,158,164983,0.0-6.0-2.25,5011,NA,NA,NA,NA,rectangles,null,null,NA,NA,critical,d,t,c,220.0396,154.6796,240,164,164,240,spektor,0.14,w,240,164,164,240,220.0396,154.6796,39360,39360,34035.6388,dc,null,null,null,null,null,null,"[1,3]"
NA,canvas-keyboard-response,159,165150,0.0-6.0-3.25,5011,NA,NA,NA,NA,clear_screen,null,null,NA,NA,critical,d,t,c,220.0396,154.6796,240,164,164,240,spektor,0.14,w,240,164,164,240,220.0396,154.6796,39360,39360,34035.6388,dc,null,null,null,null,null,null,"[1,3]"
NA,canvas-keyboard-response,160,166056,0.0-6.0-4.25,5011,NA,NA,NA,NA,make choice,891,1,NA,NA,critical,d,t,c,220.0396,154.6796,240,164,164,240,spektor,0.14,w,240,164,164,240,220.0396,154.6796,39360,39360,34035.6388,dc,null,null,null,null,null,null,"[1,3]"
NA,canvas-keyboard-response,161,166228,0.0-6.0-5.25,5011,NA,NA,NA,NA,clear_screen,null,null,NA,NA,critical,d,t,c,220.0396,154.6796,240,164,164,240,spektor,0.14,w,240,164,164,240,220.0396,154.6796,39360,39360,34035.6388,dc,null,null,null,null,null,null,"[1,3]"
NA,canvas-keyboard-response,162,166437,0.0-6.0-0.26,5011,NA,NA,NA,NA,pre trial waiting period,null,null,NA,NA,catch,sh,sw,l,199,151,159,219,227,212,spektor,null,null,null,null,null,null,null,null,null,null,null,NA,180,200,260,200,36000,52000,"[1,3]"
NA,canvas-keyboard-response,163,166597,0.0-6.0-1.26,5011,NA,NA,NA,NA,clear_screen,null,null,NA,NA,catch,sh,sw,l,199,151,159,219,227,212,spektor,null,null,null,null,null,null,null,null,null,null,null,NA,180,200,260,200,36000,52000,"[1,3]"
NA,canvas-keyboard-response,164,167942,0.0-6.0-2.26,5011,NA,NA,NA,NA,rectangles,null,null,NA,NA,catch,sh,sw,l,199,151,159,219,227,212,spektor,null,null,null,null,null,null,null,null,null,null,null,NA,180,200,260,200,36000,52000,"[1,3]"
NA,canvas-keyboard-response,165,168109,0.0-6.0-3.26,5011,NA,NA,NA,NA,clear_screen,null,null,NA,NA,catch,sh,sw,l,199,151,159,219,227,212,spektor,null,null,null,null,null,null,null,null,null,null,null,NA,180,200,260,200,36000,52000,"[1,3]"
NA,canvas-keyboard-response,166,168720,0.0-6.0-4.26,5011,NA,NA,NA,NA,make choice,595,3,NA,NA,catch,sh,sw,l,199,151,159,219,227,212,spektor,null,null,null,null,null,null,null,null,null,null,null,NA,180,200,260,200,36000,52000,"[1,3]"
NA,canvas-keyboard-response,167,168887,0.0-6.0-5.26,5011,NA,NA,NA,NA,clear_screen,null,null,NA,NA,catch,sh,sw,l,199,151,159,219,227,212,spektor,null,null,null,null,null,null,null,null,null,null,null,NA,180,200,260,200,36000,52000,"[1,3]"
NA,canvas-keyboard-response,168,169098,0.0-6.0-0.27,5011,NA,NA,NA,NA,pre trial waiting period,null,null,NA,NA,critical,t,d,c,164,240,162.6685,237.1485,240,164,spektor,0.02,h,164,240,240,164,162.6685,237.1485,39360,39360,38576.5967,td,null,null,null,null,null,null,"[1,2]"
NA,canvas-keyboard-response,169,169257,0.0-6.0-1.27,5011,NA,NA,NA,NA,clear_screen,null,null,NA,NA,critical,t,d,c,164,240,162.6685,237.1485,240,164,spektor,0.02,h,164,240,240,164,162.6685,237.1485,39360,39360,38576.5967,td,null,null,null,null,null,null,"[1,2]"
NA,canvas-keyboard-response,170,170603,0.0-6.0-2.27,5011,NA,NA,NA,NA,rectangles,null,null,NA,NA,critical,t,d,c,164,240,162.6685,237.1485,240,164,spektor,0.02,h,164,240,240,164,162.6685,237.1485,39360,39360,38576.5967,td,null,null,null,null,null,null,"[1,2]"
NA,canvas-keyboard-response,171,170771,0.0-6.0-3.27,5011,NA,NA,NA,NA,clear_screen,null,null,NA,NA,critical,t,d,c,164,240,162.6685,237.1485,240,164,spektor,0.02,h,164,240,240,164,162.6685,237.1485,39360,39360,38576.5967,td,null,null,null,null,null,null,"[1,2]"
NA,canvas-keyboard-response,172,171305,0.0-6.0-4.27,5011,NA,NA,NA,NA,make choice,516,1,NA,NA,critical,t,d,c,164,240,162.6685,237.1485,240,164,spektor,0.02,h,164,240,240,164,162.6685,237.1485,39360,39360,38576.5967,td,null,null,null,null,null,null,"[1,2]"
NA,canvas-keyboard-response,173,171469,0.0-6.0-5.27,5011,NA,NA,NA,NA,clear_screen,null,null,NA,NA,critical,t,d,c,164,240,162.6685,237.1485,240,164,spektor,0.02,h,164,240,240,164,162.6685,237.1485,39360,39360,38576.5967,td,null,null,null,null,null,null,"[1,2]"
NA,canvas-keyboard-response,174,171682,0.0-6.0-0.28,5011,NA,NA,NA,NA,pre trial waiting period,null,null,NA,NA,critical,d,c,t,162.6685,237.1485,240,164,164,240,spektor,0.02,h,164,240,240,164,162.6685,237.1485,39360,39360,38576.5967,dc,null,null,null,null,null,null,"[1,2]"
NA,canvas-keyboard-response,175,171842,0.0-6.0-1.28,5011,NA,NA,NA,NA,clear_screen,null,null,NA,NA,critical,d,c,t,162.6685,237.1485,240,164,164,240,spektor,0.02,h,164,240,240,164,162.6685,237.1485,39360,39360,38576.5967,dc,null,null,null,null,null,null,"[1,2]"
NA,canvas-keyboard-response,176,173185,0.0-6.0-2.28,5011,NA,NA,NA,NA,rectangles,null,null,NA,NA,critical,d,c,t,162.6685,237.1485,240,164,164,240,spektor,0.02,h,164,240,240,164,162.6685,237.1485,39360,39360,38576.5967,dc,null,null,null,null,null,null,"[1,2]"
NA,canvas-keyboard-response,177,173353,0.0-6.0-3.28,5011,NA,NA,NA,NA,clear_screen,null,null,NA,NA,critical,d,c,t,162.6685,237.1485,240,164,164,240,spektor,0.02,h,164,240,240,164,162.6685,237.1485,39360,39360,38576.5967,dc,null,null,null,null,null,null,"[1,2]"
NA,canvas-keyboard-response,178,173993,0.0-6.0-4.28,5011,NA,NA,NA,NA,make choice,622,1,NA,NA,critical,d,c,t,162.6685,237.1485,240,164,164,240,spektor,0.02,h,164,240,240,164,162.6685,237.1485,39360,39360,38576.5967,dc,null,null,null,null,null,null,"[1,2]"
NA,canvas-keyboard-response,179,174159,0.0-6.0-5.28,5011,NA,NA,NA,NA,clear_screen,null,null,NA,NA,critical,d,c,t,162.6685,237.1485,240,164,164,240,spektor,0.02,h,164,240,240,164,162.6685,237.1485,39360,39360,38576.5967,dc,null,null,null,null,null,null,"[1,2]"
NA,canvas-keyboard-response,180,174372,0.0-6.0-0.29,5011,NA,NA,NA,NA,pre trial waiting period,null,null,NA,NA,critical,c,d,t,164,240,237.1485,162.6685,240,164,trueblood,0.02,w,240,164,164,240,237.1485,162.6685,39360,39360,38576.5967,td,null,null,null,null,null,null,"[3,2]"
NA,canvas-keyboard-response,181,174530,0.0-6.0-1.29,5011,NA,NA,NA,NA,clear_screen,null,null,NA,NA,critical,c,d,t,164,240,237.1485,162.6685,240,164,trueblood,0.02,w,240,164,164,240,237.1485,162.6685,39360,39360,38576.5967,td,null,null,null,null,null,null,"[3,2]"
NA,canvas-keyboard-response,182,175875,0.0-6.0-2.29,5011,NA,NA,NA,NA,rectangles,null,null,NA,NA,critical,c,d,t,164,240,237.1485,162.6685,240,164,trueblood,0.02,w,240,164,164,240,237.1485,162.6685,39360,39360,38576.5967,td,null,null,null,null,null,null,"[3,2]"
NA,canvas-keyboard-response,183,176041,0.0-6.0-3.29,5011,NA,NA,NA,NA,clear_screen,null,null,NA,NA,critical,c,d,t,164,240,237.1485,162.6685,240,164,trueblood,0.02,w,240,164,164,240,237.1485,162.6685,39360,39360,38576.5967,td,null,null,null,null,null,null,"[3,2]"
NA,canvas-keyboard-response,184,176737,0.0-6.0-4.29,5011,NA,NA,NA,NA,make choice,678,3,NA,NA,critical,c,d,t,164,240,237.1485,162.6685,240,164,trueblood,0.02,w,240,164,164,240,237.1485,162.6685,39360,39360,38576.5967,td,null,null,null,null,null,null,"[3,2]"
NA,canvas-keyboard-response,185,176906,0.0-6.0-5.29,5011,NA,NA,NA,NA,clear_screen,null,null,NA,NA,critical,c,d,t,164,240,237.1485,162.6685,240,164,trueblood,0.02,w,240,164,164,240,237.1485,162.6685,39360,39360,38576.5967,td,null,null,null,null,null,null,"[3,2]"
NA,canvas-keyboard-response,186,177118,0.0-6.0-0.30,5011,NA,NA,NA,NA,pre trial waiting period,null,null,NA,NA,critical,c,d,t,240,164,154.6796,220.0396,164,240,trueblood,0.14,h,164,240,240,164,154.6796,220.0396,39360,39360,34035.6388,tc,null,null,null,null,null,null,"[3,1]"
NA,canvas-keyboard-response,187,177278,0.0-6.0-1.30,5011,NA,NA,NA,NA,clear_screen,null,null,NA,NA,critical,c,d,t,240,164,154.6796,220.0396,164,240,trueblood,0.14,h,164,240,240,164,154.6796,220.0396,39360,39360,34035.6388,tc,null,null,null,null,null,null,"[3,1]"
NA,canvas-keyboard-response,188,178621,0.0-6.0-2.30,5011,NA,NA,NA,NA,rectangles,null,null,NA,NA,critical,c,d,t,240,164,154.6796,220.0396,164,240,trueblood,0.14,h,164,240,240,164,154.6796,220.0396,39360,39360,34035.6388,tc,null,null,null,null,null,null,"[3,1]"
NA,canvas-keyboard-response,189,178788,0.0-6.0-3.30,5011,NA,NA,NA,NA,clear_screen,null,null,NA,NA,critical,c,d,t,240,164,154.6796,220.0396,164,240,trueblood,0.14,h,164,240,240,164,154.6796,220.0396,39360,39360,34035.6388,tc,null,null,null,null,null,null,"[3,1]"
NA,canvas-keyboard-response,190,182537,0.0-6.0-4.30,5011,NA,NA,NA,NA,make choice,3730,3,NA,NA,critical,c,d,t,240,164,154.6796,220.0396,164,240,trueblood,0.14,h,164,240,240,164,154.6796,220.0396,39360,39360,34035.6388,tc,null,null,null,null,null,null,"[3,1]"
NA,canvas-keyboard-response,191,182703,0.0-6.0-5.30,5011,NA,NA,NA,NA,clear_screen,null,null,NA,NA,critical,c,d,t,240,164,154.6796,220.0396,164,240,trueblood,0.14,h,164,240,240,164,154.6796,220.0396,39360,39360,34035.6388,tc,null,null,null,null,null,null,"[3,1]"
NA,canvas-keyboard-response,192,182916,0.0-6.0-0.31,5011,NA,NA,NA,NA,pre trial waiting period,null,null,NA,NA,critical,d,t,c,232.8713,160.6713,240,164,164,240,spektor,0.05,w,240,164,164,240,232.8713,160.6713,39360,39360,37415.7294,dc,null,null,null,null,null,null,"[1,3]"
NA,canvas-keyboard-response,193,183075,0.0-6.0-1.31,5011,NA,NA,NA,NA,clear_screen,null,null,NA,NA,critical,d,t,c,232.8713,160.6713,240,164,164,240,spektor,0.05,w,240,164,164,240,232.8713,160.6713,39360,39360,37415.7294,dc,null,null,null,null,null,null,"[1,3]"
NA,canvas-keyboard-response,194,184421,0.0-6.0-2.31,5011,NA,NA,NA,NA,rectangles,null,null,NA,NA,critical,d,t,c,232.8713,160.6713,240,164,164,240,spektor,0.05,w,240,164,164,240,232.8713,160.6713,39360,39360,37415.7294,dc,null,null,null,null,null,null,"[1,3]"
NA,canvas-keyboard-response,195,184588,0.0-6.0-3.31,5011,NA,NA,NA,NA,clear_screen,null,null,NA,NA,critical,d,t,c,232.8713,160.6713,240,164,164,240,spektor,0.05,w,240,164,164,240,232.8713,160.6713,39360,39360,37415.7294,dc,null,null,null,null,null,null,"[1,3]"
NA,canvas-keyboard-response,196,185280,0.0-6.0-4.31,5011,NA,NA,NA,NA,make choice,673,3,NA,NA,critical,d,t,c,232.8713,160.6713,240,164,164,240,spektor,0.05,w,240,164,164,240,232.8713,160.6713,39360,39360,37415.7294,dc,null,null,null,null,null,null,"[1,3]"
NA,canvas-keyboard-response,197,185450,0.0-6.0-5.31,5011,NA,NA,NA,NA,clear_screen,null,null,NA,NA,critical,d,t,c,232.8713,160.6713,240,164,164,240,spektor,0.05,w,240,164,164,240,232.8713,160.6713,39360,39360,37415.7294,dc,null,null,null,null,null,null,"[1,3]"
NA,canvas-keyboard-response,198,185675,0.0-6.0-0.32,5011,NA,NA,NA,NA,pre trial waiting period,null,null,NA,NA,critical,d,t,c,162.6685,237.1485,164,240,240,164,trueblood,0.02,h,164,240,240,164,162.6685,237.1485,39360,39360,38576.5967,dc,null,null,null,null,null,null,"[1,3]"
NA,canvas-keyboard-response,199,185837,0.0-6.0-1.32,5011,NA,NA,NA,NA,clear_screen,null,null,NA,NA,critical,d,t,c,162.6685,237.1485,164,240,240,164,trueblood,0.02,h,164,240,240,164,162.6685,237.1485,39360,39360,38576.5967,dc,null,null,null,null,null,null,"[1,3]"
NA,canvas-keyboard-response,200,187199,0.0-6.0-2.32,5011,NA,NA,NA,NA,rectangles,null,null,NA,NA,critical,d,t,c,162.6685,237.1485,164,240,240,164,trueblood,0.02,h,164,240,240,164,162.6685,237.1485,39360,39360,38576.5967,dc,null,null,null,null,null,null,"[1,3]"
NA,canvas-keyboard-response,201,187369,0.0-6.0-3.32,5011,NA,NA,NA,NA,clear_screen,null,null,NA,NA,critical,d,t,c,162.6685,237.1485,164,240,240,164,trueblood,0.02,h,164,240,240,164,162.6685,237.1485,39360,39360,38576.5967,dc,null,null,null,null,null,null,"[1,3]"
NA,canvas-keyboard-response,202,187889,0.0-6.0-4.32,5011,NA,NA,NA,NA,make choice,500,1,NA,NA,critical,d,t,c,162.6685,237.1485,164,240,240,164,trueblood,0.02,h,164,240,240,164,162.6685,237.1485,39360,39360,38576.5967,dc,null,null,null,null,null,null,"[1,3]"
NA,canvas-keyboard-response,203,188057,0.0-6.0-5.32,5011,NA,NA,NA,NA,clear_screen,null,null,NA,NA,critical,d,t,c,162.6685,237.1485,164,240,240,164,trueblood,0.02,h,164,240,240,164,162.6685,237.1485,39360,39360,38576.5967,dc,null,null,null,null,null,null,"[1,3]"
NA,canvas-keyboard-response,204,188270,0.0-6.0-0.33,5011,NA,NA,NA,NA,pre trial waiting period,null,null,NA,NA,critical,d,t,c,232.8713,160.6713,240,164,164,240,spektor,0.05,w,240,164,164,240,232.8713,160.6713,39360,39360,37415.7294,tc,null,null,null,null,null,null,"[2,3]"
NA,canvas-keyboard-response,205,188430,0.0-6.0-1.33,5011,NA,NA,NA,NA,clear_screen,null,null,NA,NA,critical,d,t,c,232.8713,160.6713,240,164,164,240,spektor,0.05,w,240,164,164,240,232.8713,160.6713,39360,39360,37415.7294,tc,null,null,null,null,null,null,"[2,3]"
NA,canvas-keyboard-response,206,189778,0.0-6.0-2.33,5011,NA,NA,NA,NA,rectangles,null,null,NA,NA,critical,d,t,c,232.8713,160.6713,240,164,164,240,spektor,0.05,w,240,164,164,240,232.8713,160.6713,39360,39360,37415.7294,tc,null,null,null,null,null,null,"[2,3]"
NA,canvas-keyboard-response,207,189949,0.0-6.0-3.33,5011,NA,NA,NA,NA,clear_screen,null,null,NA,NA,critical,d,t,c,232.8713,160.6713,240,164,164,240,spektor,0.05,w,240,164,164,240,232.8713,160.6713,39360,39360,37415.7294,tc,null,null,null,null,null,null,"[2,3]"
NA,canvas-keyboard-response,208,191393,0.0-6.0-4.33,5011,NA,NA,NA,NA,make choice,1424,2,NA,NA,critical,d,t,c,232.8713,160.6713,240,164,164,240,spektor,0.05,w,240,164,164,240,232.8713,160.6713,39360,39360,37415.7294,tc,null,null,null,null,null,null,"[2,3]"
NA,canvas-keyboard-response,209,191565,0.0-6.0-5.33,5011,NA,NA,NA,NA,clear_screen,null,null,NA,NA,critical,d,t,c,232.8713,160.6713,240,164,164,240,spektor,0.05,w,240,164,164,240,232.8713,160.6713,39360,39360,37415.7294,tc,null,null,null,null,null,null,"[2,3]"
NA,canvas-keyboard-response,210,191779,0.0-6.0-0.34,5011,NA,NA,NA,NA,pre trial waiting period,null,null,NA,NA,catch,sw,l,sh,180,200,236,269,195,184,spektor,null,null,null,null,null,null,null,null,null,null,null,NA,180,200,260,200,36000,52000,"[2,3]"
NA,canvas-keyboard-response,211,191939,0.0-6.0-1.34,5011,NA,NA,NA,NA,clear_screen,null,null,NA,NA,catch,sw,l,sh,180,200,236,269,195,184,spektor,null,null,null,null,null,null,null,null,null,null,null,NA,180,200,260,200,36000,52000,"[2,3]"
NA,canvas-keyboard-response,212,193286,0.0-6.0-2.34,5011,NA,NA,NA,NA,rectangles,null,null,NA,NA,catch,sw,l,sh,180,200,236,269,195,184,spektor,null,null,null,null,null,null,null,null,null,null,null,NA,180,200,260,200,36000,52000,"[2,3]"
NA,canvas-keyboard-response,213,193455,0.0-6.0-3.34,5011,NA,NA,NA,NA,clear_screen,null,null,NA,NA,catch,sw,l,sh,180,200,236,269,195,184,spektor,null,null,null,null,null,null,null,null,null,null,null,NA,180,200,260,200,36000,52000,"[2,3]"
NA,canvas-keyboard-response,214,194321,0.0-6.0-4.34,5011,NA,NA,NA,NA,make choice,847,2,NA,NA,catch,sw,l,sh,180,200,236,269,195,184,spektor,null,null,null,null,null,null,null,null,null,null,null,NA,180,200,260,200,36000,52000,"[2,3]"
NA,canvas-keyboard-response,215,194491,0.0-6.0-5.34,5011,NA,NA,NA,NA,clear_screen,null,null,NA,NA,catch,sw,l,sh,180,200,236,269,195,184,spektor,null,null,null,null,null,null,null,null,null,null,null,NA,180,200,260,200,36000,52000,"[2,3]"
NA,canvas-keyboard-response,216,194706,0.0-6.0-0.35,5011,NA,NA,NA,NA,pre trial waiting period,null,null,NA,NA,critical,c,t,d,240,164,164,240,162.6685,237.1485,spektor,0.02,h,164,240,240,164,162.6685,237.1485,39360,39360,38576.5967,tc,null,null,null,null,null,null,"[2,1]"
NA,canvas-keyboard-response,217,194865,0.0-6.0-1.35,5011,NA,NA,NA,NA,clear_screen,null,null,NA,NA,critical,c,t,d,240,164,164,240,162.6685,237.1485,spektor,0.02,h,164,240,240,164,162.6685,237.1485,39360,39360,38576.5967,tc,null,null,null,null,null,null,"[2,1]"
NA,canvas-keyboard-response,218,196215,0.0-6.0-2.35,5011,NA,NA,NA,NA,rectangles,null,null,NA,NA,critical,c,t,d,240,164,164,240,162.6685,237.1485,spektor,0.02,h,164,240,240,164,162.6685,237.1485,39360,39360,38576.5967,tc,null,null,null,null,null,null,"[2,1]"
NA,canvas-keyboard-response,219,196389,0.0-6.0-3.35,5011,NA,NA,NA,NA,clear_screen,null,null,NA,NA,critical,c,t,d,240,164,164,240,162.6685,237.1485,spektor,0.02,h,164,240,240,164,162.6685,237.1485,39360,39360,38576.5967,tc,null,null,null,null,null,null,"[2,1]"
NA,canvas-keyboard-response,220,198225,0.0-6.0-4.35,5011,NA,NA,NA,NA,make choice,1815,2,NA,NA,critical,c,t,d,240,164,164,240,162.6685,237.1485,spektor,0.02,h,164,240,240,164,162.6685,237.1485,39360,39360,38576.5967,tc,null,null,null,null,null,null,"[2,1]"
NA,canvas-keyboard-response,221,198394,0.0-6.0-5.35,5011,NA,NA,NA,NA,clear_screen,null,null,NA,NA,critical,c,t,d,240,164,164,240,162.6685,237.1485,spektor,0.02,h,164,240,240,164,162.6685,237.1485,39360,39360,38576.5967,tc,null,null,null,null,null,null,"[2,1]"
NA,canvas-keyboard-response,222,198608,0.0-6.0-0.36,5011,NA,NA,NA,NA,pre trial waiting period,null,null,NA,NA,critical,t,d,c,164,240,164,240,240,164,spektor,0,h,164,240,240,164,164,240,39360,39360,39360,tc,null,null,null,null,null,null,"[1,3]"
NA,canvas-keyboard-response,223,198767,0.0-6.0-1.36,5011,NA,NA,NA,NA,clear_screen,null,null,NA,NA,critical,t,d,c,164,240,164,240,240,164,spektor,0,h,164,240,240,164,164,240,39360,39360,39360,tc,null,null,null,null,null,null,"[1,3]"
NA,canvas-keyboard-response,224,200115,0.0-6.0-2.36,5011,NA,NA,NA,NA,rectangles,null,null,NA,NA,critical,t,d,c,164,240,164,240,240,164,spektor,0,h,164,240,240,164,164,240,39360,39360,39360,tc,null,null,null,null,null,null,"[1,3]"
NA,canvas-keyboard-response,225,200286,0.0-6.0-3.36,5011,NA,NA,NA,NA,clear_screen,null,null,NA,NA,critical,t,d,c,164,240,164,240,240,164,spektor,0,h,164,240,240,164,164,240,39360,39360,39360,tc,null,null,null,null,null,null,"[1,3]"
NA,canvas-keyboard-response,226,200809,0.0-6.0-4.36,5011,NA,NA,NA,NA,make choice,504,1,NA,NA,critical,t,d,c,164,240,164,240,240,164,spektor,0,h,164,240,240,164,164,240,39360,39360,39360,tc,null,null,null,null,null,null,"[1,3]"
NA,canvas-keyboard-response,227,200976,0.0-6.0-5.36,5011,NA,NA,NA,NA,clear_screen,null,null,NA,NA,critical,t,d,c,164,240,164,240,240,164,spektor,0,h,164,240,240,164,164,240,39360,39360,39360,tc,null,null,null,null,null,null,"[1,3]"
NA,canvas-keyboard-response,228,201190,0.0-6.0-0.37,5011,NA,NA,NA,NA,pre trial waiting period,null,null,NA,NA,catch,l,sh,sw,262,198,208,215,208,177,trueblood,null,null,null,null,null,null,null,null,null,null,null,NA,180,200,260,200,36000,52000,"[1,3]"
NA,canvas-keyboard-response,229,201348,0.0-6.0-1.37,5011,NA,NA,NA,NA,clear_screen,null,null,NA,NA,catch,l,sh,sw,262,198,208,215,208,177,trueblood,null,null,null,null,null,null,null,null,null,null,null,NA,180,200,260,200,36000,52000,"[1,3]"
NA,canvas-keyboard-response,230,202694,0.0-6.0-2.37,5011,NA,NA,NA,NA,rectangles,null,null,NA,NA,catch,l,sh,sw,262,198,208,215,208,177,trueblood,null,null,null,null,null,null,null,null,null,null,null,NA,180,200,260,200,36000,52000,"[1,3]"
NA,canvas-keyboard-response,231,202863,0.0-6.0-3.37,5011,NA,NA,NA,NA,clear_screen,null,null,NA,NA,catch,l,sh,sw,262,198,208,215,208,177,trueblood,null,null,null,null,null,null,null,null,null,null,null,NA,180,200,260,200,36000,52000,"[1,3]"
NA,canvas-keyboard-response,232,203320,0.0-6.0-4.37,5011,NA,NA,NA,NA,make choice,436,1,NA,NA,catch,l,sh,sw,262,198,208,215,208,177,trueblood,null,null,null,null,null,null,null,null,null,null,null,NA,180,200,260,200,36000,52000,"[1,3]"
NA,canvas-keyboard-response,233,203490,0.0-6.0-5.37,5011,NA,NA,NA,NA,clear_screen,null,null,NA,NA,catch,l,sh,sw,262,198,208,215,208,177,trueblood,null,null,null,null,null,null,null,null,null,null,null,NA,180,200,260,200,36000,52000,"[1,3]"
NA,canvas-keyboard-response,234,203705,0.0-6.0-0.38,5011,NA,NA,NA,NA,pre trial waiting period,null,null,NA,NA,catch,l,sh,sw,186,259,161,163,200,173,trueblood,null,null,null,null,null,null,null,null,null,null,null,NA,180,200,260,200,36000,52000,"[1,3]"
NA,canvas-keyboard-response,235,203866,0.0-6.0-1.38,5011,NA,NA,NA,NA,clear_screen,null,null,NA,NA,catch,l,sh,sw,186,259,161,163,200,173,trueblood,null,null,null,null,null,null,null,null,null,null,null,NA,180,200,260,200,36000,52000,"[1,3]"
NA,canvas-keyboard-response,236,205211,0.0-6.0-2.38,5011,NA,NA,NA,NA,rectangles,null,null,NA,NA,catch,l,sh,sw,186,259,161,163,200,173,trueblood,null,null,null,null,null,null,null,null,null,null,null,NA,180,200,260,200,36000,52000,"[1,3]"
NA,canvas-keyboard-response,237,205381,0.0-6.0-3.38,5011,NA,NA,NA,NA,clear_screen,null,null,NA,NA,catch,l,sh,sw,186,259,161,163,200,173,trueblood,null,null,null,null,null,null,null,null,null,null,null,NA,180,200,260,200,36000,52000,"[1,3]"
NA,canvas-keyboard-response,238,205664,0.0-6.0-4.38,5011,NA,NA,NA,NA,make choice,262,1,NA,NA,catch,l,sh,sw,186,259,161,163,200,173,trueblood,null,null,null,null,null,null,null,null,null,null,null,NA,180,200,260,200,36000,52000,"[1,3]"
NA,canvas-keyboard-response,239,205833,0.0-6.0-5.38,5011,NA,NA,NA,NA,clear_screen,null,null,NA,NA,catch,l,sh,sw,186,259,161,163,200,173,trueblood,null,null,null,null,null,null,null,null,null,null,null,NA,180,200,260,200,36000,52000,"[1,3]"
NA,canvas-keyboard-response,240,206048,0.0-6.0-0.39,5011,NA,NA,NA,NA,pre trial waiting period,null,null,NA,NA,catch,sw,sh,l,180,200,171,207,294,174,trueblood,null,null,null,null,null,null,null,null,null,null,null,NA,180,200,260,200,36000,52000,"[2,3]"
NA,canvas-keyboard-response,241,206207,0.0-6.0-1.39,5011,NA,NA,NA,NA,clear_screen,null,null,NA,NA,catch,sw,sh,l,180,200,171,207,294,174,trueblood,null,null,null,null,null,null,null,null,null,null,null,NA,180,200,260,200,36000,52000,"[2,3]"
NA,canvas-keyboard-response,242,207554,0.0-6.0-2.39,5011,NA,NA,NA,NA,rectangles,null,null,NA,NA,catch,sw,sh,l,180,200,171,207,294,174,trueblood,null,null,null,null,null,null,null,null,null,null,null,NA,180,200,260,200,36000,52000,"[2,3]"
NA,canvas-keyboard-response,243,207723,0.0-6.0-3.39,5011,NA,NA,NA,NA,clear_screen,null,null,NA,NA,catch,sw,sh,l,180,200,171,207,294,174,trueblood,null,null,null,null,null,null,null,null,null,null,null,NA,180,200,260,200,36000,52000,"[2,3]"
NA,canvas-keyboard-response,244,208024,0.0-6.0-4.39,5011,NA,NA,NA,NA,make choice,279,3,NA,NA,catch,sw,sh,l,180,200,171,207,294,174,trueblood,null,null,null,null,null,null,null,null,null,null,null,NA,180,200,260,200,36000,52000,"[2,3]"
NA,canvas-keyboard-response,245,208194,0.0-6.0-5.39,5011,NA,NA,NA,NA,clear_screen,null,null,NA,NA,catch,sw,sh,l,180,200,171,207,294,174,trueblood,null,null,null,null,null,null,null,null,null,null,null,NA,180,200,260,200,36000,52000,"[2,3]"
NA,canvas-keyboard-response,246,208408,0.0-6.0-0.40,5011,NA,NA,NA,NA,pre trial waiting period,null,null,NA,NA,catch,l,sh,sw,189,262,214,158,180,217,trueblood,null,null,null,null,null,null,null,null,null,null,null,NA,180,200,260,200,36000,52000,"[1,3]"
NA,canvas-keyboard-response,247,208567,0.0-6.0-1.40,5011,NA,NA,NA,NA,clear_screen,null,null,NA,NA,catch,l,sh,sw,189,262,214,158,180,217,trueblood,null,null,null,null,null,null,null,null,null,null,null,NA,180,200,260,200,36000,52000,"[1,3]"
NA,canvas-keyboard-response,248,209913,0.0-6.0-2.40,5011,NA,NA,NA,NA,rectangles,null,null,NA,NA,catch,l,sh,sw,189,262,214,158,180,217,trueblood,null,null,null,null,null,null,null,null,null,null,null,NA,180,200,260,200,36000,52000,"[1,3]"
NA,canvas-keyboard-response,249,210082,0.0-6.0-3.40,5011,NA,NA,NA,NA,clear_screen,null,null,NA,NA,catch,l,sh,sw,189,262,214,158,180,217,trueblood,null,null,null,null,null,null,null,null,null,null,null,NA,180,200,260,200,36000,52000,"[1,3]"
NA,canvas-keyboard-response,250,210296,0.0-6.0-4.40,5011,NA,NA,NA,NA,make choice,193,1,NA,NA,catch,l,sh,sw,189,262,214,158,180,217,trueblood,null,null,null,null,null,null,null,null,null,null,null,NA,180,200,260,200,36000,52000,"[1,3]"
NA,canvas-keyboard-response,251,210467,0.0-6.0-5.40,5011,NA,NA,NA,NA,clear_screen,null,null,NA,NA,catch,l,sh,sw,189,262,214,158,180,217,trueblood,null,null,null,null,null,null,null,null,null,null,null,NA,180,200,260,200,36000,52000,"[1,3]"
NA,canvas-keyboard-response,252,210683,0.0-6.0-0.41,5011,NA,NA,NA,NA,pre trial waiting period,null,null,NA,NA,critical,d,t,c,237.1485,162.6685,240,164,164,240,spektor,0.02,w,240,164,164,240,237.1485,162.6685,39360,39360,38576.5967,td,null,null,null,null,null,null,"[2,1]"
NA,canvas-keyboard-response,253,210842,0.0-6.0-1.41,5011,NA,NA,NA,NA,clear_screen,null,null,NA,NA,critical,d,t,c,237.1485,162.6685,240,164,164,240,spektor,0.02,w,240,164,164,240,237.1485,162.6685,39360,39360,38576.5967,td,null,null,null,null,null,null,"[2,1]"
NA,canvas-keyboard-response,254,212190,0.0-6.0-2.41,5011,NA,NA,NA,NA,rectangles,null,null,NA,NA,critical,d,t,c,237.1485,162.6685,240,164,164,240,spektor,0.02,w,240,164,164,240,237.1485,162.6685,39360,39360,38576.5967,td,null,null,null,null,null,null,"[2,1]"
NA,canvas-keyboard-response,255,212359,0.0-6.0-3.41,5011,NA,NA,NA,NA,clear_screen,null,null,NA,NA,critical,d,t,c,237.1485,162.6685,240,164,164,240,spektor,0.02,w,240,164,164,240,237.1485,162.6685,39360,39360,38576.5967,td,null,null,null,null,null,null,"[2,1]"
NA,canvas-keyboard-response,256,213785,0.0-6.0-4.41,5011,NA,NA,NA,NA,make choice,1403,1,NA,NA,critical,d,t,c,237.1485,162.6685,240,164,164,240,spektor,0.02,w,240,164,164,240,237.1485,162.6685,39360,39360,38576.5967,td,null,null,null,null,null,null,"[2,1]"
NA,canvas-keyboard-response,257,213955,0.0-6.0-5.41,5011,NA,NA,NA,NA,clear_screen,null,null,NA,NA,critical,d,t,c,237.1485,162.6685,240,164,164,240,spektor,0.02,w,240,164,164,240,237.1485,162.6685,39360,39360,38576.5967,td,null,null,null,null,null,null,"[2,1]"
NA,canvas-keyboard-response,258,214170,0.0-6.0-0.42,5011,NA,NA,NA,NA,pre trial waiting period,null,null,NA,NA,critical,d,c,t,158.0083,227.1683,240,164,164,240,spektor,0.09,h,164,240,240,164,158.0083,227.1683,39360,39360,35894.4834,tc,null,null,null,null,null,null,"[3,2]"
NA,canvas-keyboard-response,259,214329,0.0-6.0-1.42,5011,NA,NA,NA,NA,clear_screen,null,null,NA,NA,critical,d,c,t,158.0083,227.1683,240,164,164,240,spektor,0.09,h,164,240,240,164,158.0083,227.1683,39360,39360,35894.4834,tc,null,null,null,null,null,null,"[3,2]"
NA,canvas-keyboard-response,260,215677,0.0-6.0-2.42,5011,NA,NA,NA,NA,rectangles,null,null,NA,NA,critical,d,c,t,158.0083,227.1683,240,164,164,240,spektor,0.09,h,164,240,240,164,158.0083,227.1683,39360,39360,35894.4834,tc,null,null,null,null,null,null,"[3,2]"
NA,canvas-keyboard-response,261,215848,0.0-6.0-3.42,5011,NA,NA,NA,NA,clear_screen,null,null,NA,NA,critical,d,c,t,158.0083,227.1683,240,164,164,240,spektor,0.09,h,164,240,240,164,158.0083,227.1683,39360,39360,35894.4834,tc,null,null,null,null,null,null,"[3,2]"
NA,canvas-keyboard-response,262,217488,0.0-6.0-4.42,5011,NA,NA,NA,NA,make choice,1619,3,NA,NA,critical,d,c,t,158.0083,227.1683,240,164,164,240,spektor,0.09,h,164,240,240,164,158.0083,227.1683,39360,39360,35894.4834,tc,null,null,null,null,null,null,"[3,2]"
NA,canvas-keyboard-response,263,217657,0.0-6.0-5.42,5011,NA,NA,NA,NA,clear_screen,null,null,NA,NA,critical,d,c,t,158.0083,227.1683,240,164,164,240,spektor,0.09,h,164,240,240,164,158.0083,227.1683,39360,39360,35894.4834,tc,null,null,null,null,null,null,"[3,2]"
NA,canvas-keyboard-response,264,217873,0.0-6.0-0.43,5011,NA,NA,NA,NA,pre trial waiting period,null,null,NA,NA,critical,t,c,d,164,240,240,164,154.6796,220.0396,spektor,0.14,h,164,240,240,164,154.6796,220.0396,39360,39360,34035.6388,dc,null,null,null,null,null,null,"[3,2]"
NA,canvas-keyboard-response,265,218032,0.0-6.0-1.43,5011,NA,NA,NA,NA,clear_screen,null,null,NA,NA,critical,t,c,d,164,240,240,164,154.6796,220.0396,spektor,0.14,h,164,240,240,164,154.6796,220.0396,39360,39360,34035.6388,dc,null,null,null,null,null,null,"[3,2]"
NA,canvas-keyboard-response,266,219380,0.0-6.0-2.43,5011,NA,NA,NA,NA,rectangles,null,null,NA,NA,critical,t,c,d,164,240,240,164,154.6796,220.0396,spektor,0.14,h,164,240,240,164,154.6796,220.0396,39360,39360,34035.6388,dc,null,null,null,null,null,null,"[3,2]"
NA,canvas-keyboard-response,267,219551,0.0-6.0-3.43,5011,NA,NA,NA,NA,clear_screen,null,null,NA,NA,critical,t,c,d,164,240,240,164,154.6796,220.0396,spektor,0.14,h,164,240,240,164,154.6796,220.0396,39360,39360,34035.6388,dc,null,null,null,null,null,null,"[3,2]"
NA,canvas-keyboard-response,268,220281,0.0-6.0-4.43,5011,NA,NA,NA,NA,make choice,707,2,NA,NA,critical,t,c,d,164,240,240,164,154.6796,220.0396,spektor,0.14,h,164,240,240,164,154.6796,220.0396,39360,39360,34035.6388,dc,null,null,null,null,null,null,"[3,2]"
NA,canvas-keyboard-response,269,220449,0.0-6.0-5.43,5011,NA,NA,NA,NA,clear_screen,null,null,NA,NA,critical,t,c,d,164,240,240,164,154.6796,220.0396,spektor,0.14,h,164,240,240,164,154.6796,220.0396,39360,39360,34035.6388,dc,null,null,null,null,null,null,"[3,2]"
NA,canvas-keyboard-response,270,220667,0.0-6.0-0.44,5011,NA,NA,NA,NA,pre trial waiting period,null,null,NA,NA,catch,sw,sh,l,180,200,187,172,193,262,trueblood,null,null,null,null,null,null,null,null,null,null,null,NA,180,200,260,200,36000,52000,"[1,3]"
NA,canvas-keyboard-response,271,220826,0.0-6.0-1.44,5011,NA,NA,NA,NA,clear_screen,null,null,NA,NA,catch,sw,sh,l,180,200,187,172,193,262,trueblood,null,null,null,null,null,null,null,null,null,null,null,NA,180,200,260,200,36000,52000,"[1,3]"
NA,canvas-keyboard-response,272,222175,0.0-6.0-2.44,5011,NA,NA,NA,NA,rectangles,null,null,NA,NA,catch,sw,sh,l,180,200,187,172,193,262,trueblood,null,null,null,null,null,null,null,null,null,null,null,NA,180,200,260,200,36000,52000,"[1,3]"
NA,canvas-keyboard-response,273,222361,0.0-6.0-3.44,5011,NA,NA,NA,NA,clear_screen,null,null,NA,NA,catch,sw,sh,l,180,200,187,172,193,262,trueblood,null,null,null,null,null,null,null,null,null,null,null,NA,180,200,260,200,36000,52000,"[1,3]"
NA,canvas-keyboard-response,274,223329,0.0-6.0-4.44,5011,NA,NA,NA,NA,make choice,931,3,NA,NA,catch,sw,sh,l,180,200,187,172,193,262,trueblood,null,null,null,null,null,null,null,null,null,null,null,NA,180,200,260,200,36000,52000,"[1,3]"
NA,canvas-keyboard-response,275,223503,0.0-6.0-5.44,5011,NA,NA,NA,NA,clear_screen,null,null,NA,NA,catch,sw,sh,l,180,200,187,172,193,262,trueblood,null,null,null,null,null,null,null,null,null,null,null,NA,180,200,260,200,36000,52000,"[1,3]"
NA,canvas-keyboard-response,276,223720,0.0-6.0-0.45,5011,NA,NA,NA,NA,pre trial waiting period,null,null,NA,NA,critical,t,d,c,164,240,158.0083,227.1683,240,164,trueblood,0.09,h,164,240,240,164,158.0083,227.1683,39360,39360,35894.4834,td,null,null,null,null,null,null,"[1,2]"
NA,canvas-keyboard-response,277,223881,0.0-6.0-1.45,5011,NA,NA,NA,NA,clear_screen,null,null,NA,NA,critical,t,d,c,164,240,158.0083,227.1683,240,164,trueblood,0.09,h,164,240,240,164,158.0083,227.1683,39360,39360,35894.4834,td,null,null,null,null,null,null,"[1,2]"
NA,canvas-keyboard-response,278,225230,0.0-6.0-2.45,5011,NA,NA,NA,NA,rectangles,null,null,NA,NA,critical,t,d,c,164,240,158.0083,227.1683,240,164,trueblood,0.09,h,164,240,240,164,158.0083,227.1683,39360,39360,35894.4834,td,null,null,null,null,null,null,"[1,2]"
NA,canvas-keyboard-response,279,225403,0.0-6.0-3.45,5011,NA,NA,NA,NA,clear_screen,null,null,NA,NA,critical,t,d,c,164,240,158.0083,227.1683,240,164,trueblood,0.09,h,164,240,240,164,158.0083,227.1683,39360,39360,35894.4834,td,null,null,null,null,null,null,"[1,2]"
NA,canvas-keyboard-response,280,226153,0.0-6.0-4.45,5011,NA,NA,NA,NA,make choice,726,1,NA,NA,critical,t,d,c,164,240,158.0083,227.1683,240,164,trueblood,0.09,h,164,240,240,164,158.0083,227.1683,39360,39360,35894.4834,td,null,null,null,null,null,null,"[1,2]"
NA,canvas-keyboard-response,281,226325,0.0-6.0-5.45,5011,NA,NA,NA,NA,clear_screen,null,null,NA,NA,critical,t,d,c,164,240,158.0083,227.1683,240,164,trueblood,0.09,h,164,240,240,164,158.0083,227.1683,39360,39360,35894.4834,td,null,null,null,null,null,null,"[1,2]"
NA,canvas-keyboard-response,282,226544,0.0-6.0-0.46,5011,NA,NA,NA,NA,pre trial waiting period,null,null,NA,NA,critical,d,t,c,160.6713,232.8713,164,240,240,164,spektor,0.05,h,164,240,240,164,160.6713,232.8713,39360,39360,37415.7294,td,null,null,null,null,null,null,"[2,1]"
NA,canvas-keyboard-response,283,226705,0.0-6.0-1.46,5011,NA,NA,NA,NA,clear_screen,null,null,NA,NA,critical,d,t,c,160.6713,232.8713,164,240,240,164,spektor,0.05,h,164,240,240,164,160.6713,232.8713,39360,39360,37415.7294,td,null,null,null,null,null,null,"[2,1]"
NA,canvas-keyboard-response,284,228054,0.0-6.0-2.46,5011,NA,NA,NA,NA,rectangles,null,null,NA,NA,critical,d,t,c,160.6713,232.8713,164,240,240,164,spektor,0.05,h,164,240,240,164,160.6713,232.8713,39360,39360,37415.7294,td,null,null,null,null,null,null,"[2,1]"
NA,canvas-keyboard-response,285,228229,0.0-6.0-3.46,5011,NA,NA,NA,NA,clear_screen,null,null,NA,NA,critical,d,t,c,160.6713,232.8713,164,240,240,164,spektor,0.05,h,164,240,240,164,160.6713,232.8713,39360,39360,37415.7294,td,null,null,null,null,null,null,"[2,1]"
NA,canvas-keyboard-response,286,228968,0.0-6.0-4.46,5011,NA,NA,NA,NA,make choice,717,1,NA,NA,critical,d,t,c,160.6713,232.8713,164,240,240,164,spektor,0.05,h,164,240,240,164,160.6713,232.8713,39360,39360,37415.7294,td,null,null,null,null,null,null,"[2,1]"
NA,canvas-keyboard-response,287,229139,0.0-6.0-5.46,5011,NA,NA,NA,NA,clear_screen,null,null,NA,NA,critical,d,t,c,160.6713,232.8713,164,240,240,164,spektor,0.05,h,164,240,240,164,160.6713,232.8713,39360,39360,37415.7294,td,null,null,null,null,null,null,"[2,1]"
NA,canvas-keyboard-response,288,229355,0.0-6.0-0.47,5011,NA,NA,NA,NA,pre trial waiting period,null,null,NA,NA,critical,c,d,t,164,240,240,164,240,164,trueblood,0,w,240,164,164,240,240,164,39360,39360,39360,td,null,null,null,null,null,null,"[3,2]"
NA,canvas-keyboard-response,289,229516,0.0-6.0-1.47,5011,NA,NA,NA,NA,clear_screen,null,null,NA,NA,critical,c,d,t,164,240,240,164,240,164,trueblood,0,w,240,164,164,240,240,164,39360,39360,39360,td,null,null,null,null,null,null,"[3,2]"
NA,canvas-keyboard-response,290,230865,0.0-6.0-2.47,5011,NA,NA,NA,NA,rectangles,null,null,NA,NA,critical,c,d,t,164,240,240,164,240,164,trueblood,0,w,240,164,164,240,240,164,39360,39360,39360,td,null,null,null,null,null,null,"[3,2]"
NA,canvas-keyboard-response,291,231037,0.0-6.0-3.47,5011,NA,NA,NA,NA,clear_screen,null,null,NA,NA,critical,c,d,t,164,240,240,164,240,164,trueblood,0,w,240,164,164,240,240,164,39360,39360,39360,td,null,null,null,null,null,null,"[3,2]"
NA,canvas-keyboard-response,292,231393,0.0-6.0-4.47,5011,NA,NA,NA,NA,make choice,334,2,NA,NA,critical,c,d,t,164,240,240,164,240,164,trueblood,0,w,240,164,164,240,240,164,39360,39360,39360,td,null,null,null,null,null,null,"[3,2]"
NA,canvas-keyboard-response,293,231565,0.0-6.0-5.47,5011,NA,NA,NA,NA,clear_screen,null,null,NA,NA,critical,c,d,t,164,240,240,164,240,164,trueblood,0,w,240,164,164,240,240,164,39360,39360,39360,td,null,null,null,null,null,null,"[3,2]"
NA,canvas-keyboard-response,294,231782,0.0-6.0-0.48,5011,NA,NA,NA,NA,pre trial waiting period,null,null,NA,NA,critical,d,c,t,160.6713,232.8713,240,164,164,240,spektor,0.05,h,164,240,240,164,160.6713,232.8713,39360,39360,37415.7294,tc,null,null,null,null,null,null,"[3,2]"
NA,canvas-keyboard-response,295,231941,0.0-6.0-1.48,5011,NA,NA,NA,NA,clear_screen,null,null,NA,NA,critical,d,c,t,160.6713,232.8713,240,164,164,240,spektor,0.05,h,164,240,240,164,160.6713,232.8713,39360,39360,37415.7294,tc,null,null,null,null,null,null,"[3,2]"
NA,canvas-keyboard-response,296,233292,0.0-6.0-2.48,5011,NA,NA,NA,NA,rectangles,null,null,NA,NA,critical,d,c,t,160.6713,232.8713,240,164,164,240,spektor,0.05,h,164,240,240,164,160.6713,232.8713,39360,39360,37415.7294,tc,null,null,null,null,null,null,"[3,2]"
NA,canvas-keyboard-response,297,233466,0.0-6.0-3.48,5011,NA,NA,NA,NA,clear_screen,null,null,NA,NA,critical,d,c,t,160.6713,232.8713,240,164,164,240,spektor,0.05,h,164,240,240,164,160.6713,232.8713,39360,39360,37415.7294,tc,null,null,null,null,null,null,"[3,2]"
NA,canvas-keyboard-response,298,233809,0.0-6.0-4.48,5011,NA,NA,NA,NA,make choice,319,3,NA,NA,critical,d,c,t,160.6713,232.8713,240,164,164,240,spektor,0.05,h,164,240,240,164,160.6713,232.8713,39360,39360,37415.7294,tc,null,null,null,null,null,null,"[3,2]"
NA,canvas-keyboard-response,299,233982,0.0-6.0-5.48,5011,NA,NA,NA,NA,clear_screen,null,null,NA,NA,critical,d,c,t,160.6713,232.8713,240,164,164,240,spektor,0.05,h,164,240,240,164,160.6713,232.8713,39360,39360,37415.7294,tc,null,null,null,null,null,null,"[3,2]"
NA,canvas-keyboard-response,300,234196,0.0-6.0-0.49,5011,NA,NA,NA,NA,pre trial waiting period,null,null,NA,NA,critical,t,c,d,164,240,240,164,164,240,trueblood,0,h,164,240,240,164,164,240,39360,39360,39360,td,null,null,null,null,null,null,"[1,3]"
NA,canvas-keyboard-response,301,234355,0.0-6.0-1.49,5011,NA,NA,NA,NA,clear_screen,null,null,NA,NA,critical,t,c,d,164,240,240,164,164,240,trueblood,0,h,164,240,240,164,164,240,39360,39360,39360,td,null,null,null,null,null,null,"[1,3]"
NA,canvas-keyboard-response,302,235702,0.0-6.0-2.49,5011,NA,NA,NA,NA,rectangles,null,null,NA,NA,critical,t,c,d,164,240,240,164,164,240,trueblood,0,h,164,240,240,164,164,240,39360,39360,39360,td,null,null,null,null,null,null,"[1,3]"
NA,canvas-keyboard-response,303,235875,0.0-6.0-3.49,5011,NA,NA,NA,NA,clear_screen,null,null,NA,NA,critical,t,c,d,164,240,240,164,164,240,trueblood,0,h,164,240,240,164,164,240,39360,39360,39360,td,null,null,null,null,null,null,"[1,3]"
NA,canvas-keyboard-response,304,236673,0.0-6.0-4.49,5011,NA,NA,NA,NA,make choice,776,1,NA,NA,critical,t,c,d,164,240,240,164,164,240,trueblood,0,h,164,240,240,164,164,240,39360,39360,39360,td,null,null,null,null,null,null,"[1,3]"
NA,canvas-keyboard-response,305,236845,0.0-6.0-5.49,5011,NA,NA,NA,NA,clear_screen,null,null,NA,NA,critical,t,c,d,164,240,240,164,164,240,trueblood,0,h,164,240,240,164,164,240,39360,39360,39360,td,null,null,null,null,null,null,"[1,3]"
NA,canvas-keyboard-response,306,237063,0.0-6.0-0.50,5011,NA,NA,NA,NA,pre trial waiting period,null,null,NA,NA,critical,c,t,d,164,240,240,164,232.8713,160.6713,trueblood,0.05,w,240,164,164,240,232.8713,160.6713,39360,39360,37415.7294,dc,null,null,null,null,null,null,"[3,1]"
NA,canvas-keyboard-response,307,237222,0.0-6.0-1.50,5011,NA,NA,NA,NA,clear_screen,null,null,NA,NA,critical,c,t,d,164,240,240,164,232.8713,160.6713,trueblood,0.05,w,240,164,164,240,232.8713,160.6713,39360,39360,37415.7294,dc,null,null,null,null,null,null,"[3,1]"
NA,canvas-keyboard-response,308,238572,0.0-6.0-2.50,5011,NA,NA,NA,NA,rectangles,null,null,NA,NA,critical,c,t,d,164,240,240,164,232.8713,160.6713,trueblood,0.05,w,240,164,164,240,232.8713,160.6713,39360,39360,37415.7294,dc,null,null,null,null,null,null,"[3,1]"
NA,canvas-keyboard-response,309,238748,0.0-6.0-3.50,5011,NA,NA,NA,NA,clear_screen,null,null,NA,NA,critical,c,t,d,164,240,240,164,232.8713,160.6713,trueblood,0.05,w,240,164,164,240,232.8713,160.6713,39360,39360,37415.7294,dc,null,null,null,null,null,null,"[3,1]"
NA,canvas-keyboard-response,310,239209,0.0-6.0-4.50,5011,NA,NA,NA,NA,make choice,436,1,NA,NA,critical,c,t,d,164,240,240,164,232.8713,160.6713,trueblood,0.05,w,240,164,164,240,232.8713,160.6713,39360,39360,37415.7294,dc,null,null,null,null,null,null,"[3,1]"
NA,canvas-keyboard-response,311,239380,0.0-6.0-5.50,5011,NA,NA,NA,NA,clear_screen,null,null,NA,NA,critical,c,t,d,164,240,240,164,232.8713,160.6713,trueblood,0.05,w,240,164,164,240,232.8713,160.6713,39360,39360,37415.7294,dc,null,null,null,null,null,null,"[3,1]"
NA,canvas-keyboard-response,312,239598,0.0-6.0-0.51,5011,NA,NA,NA,NA,pre trial waiting period,null,null,NA,NA,catch,sw,sh,l,180,200,214,173,219,257,trueblood,null,null,null,null,null,null,null,null,null,null,null,NA,180,200,260,200,36000,52000,"[1,3]"
NA,canvas-keyboard-response,313,239758,0.0-6.0-1.51,5011,NA,NA,NA,NA,clear_screen,null,null,NA,NA,catch,sw,sh,l,180,200,214,173,219,257,trueblood,null,null,null,null,null,null,null,null,null,null,null,NA,180,200,260,200,36000,52000,"[1,3]"
NA,canvas-keyboard-response,314,241106,0.0-6.0-2.51,5011,NA,NA,NA,NA,rectangles,null,null,NA,NA,catch,sw,sh,l,180,200,214,173,219,257,trueblood,null,null,null,null,null,null,null,null,null,null,null,NA,180,200,260,200,36000,52000,"[1,3]"
NA,canvas-keyboard-response,315,241278,0.0-6.0-3.51,5011,NA,NA,NA,NA,clear_screen,null,null,NA,NA,catch,sw,sh,l,180,200,214,173,219,257,trueblood,null,null,null,null,null,null,null,null,null,null,null,NA,180,200,260,200,36000,52000,"[1,3]"
NA,canvas-keyboard-response,316,241896,0.0-6.0-4.51,5011,NA,NA,NA,NA,make choice,593,3,NA,NA,catch,sw,sh,l,180,200,214,173,219,257,trueblood,null,null,null,null,null,null,null,null,null,null,null,NA,180,200,260,200,36000,52000,"[1,3]"
NA,canvas-keyboard-response,317,242067,0.0-6.0-5.51,5011,NA,NA,NA,NA,clear_screen,null,null,NA,NA,catch,sw,sh,l,180,200,214,173,219,257,trueblood,null,null,null,null,null,null,null,null,null,null,null,NA,180,200,260,200,36000,52000,"[1,3]"
NA,canvas-keyboard-response,318,242286,0.0-6.0-0.52,5011,NA,NA,NA,NA,pre trial waiting period,null,null,NA,NA,critical,d,c,t,220.0396,154.6796,164,240,240,164,trueblood,0.14,w,240,164,164,240,220.0396,154.6796,39360,39360,34035.6388,tc,null,null,null,null,null,null,"[3,2]"
NA,canvas-keyboard-response,319,242445,0.0-6.0-1.52,5011,NA,NA,NA,NA,clear_screen,null,null,NA,NA,critical,d,c,t,220.0396,154.6796,164,240,240,164,trueblood,0.14,w,240,164,164,240,220.0396,154.6796,39360,39360,34035.6388,tc,null,null,null,null,null,null,"[3,2]"
NA,canvas-keyboard-response,320,243797,0.0-6.0-2.52,5011,NA,NA,NA,NA,rectangles,null,null,NA,NA,critical,d,c,t,220.0396,154.6796,164,240,240,164,trueblood,0.14,w,240,164,164,240,220.0396,154.6796,39360,39360,34035.6388,tc,null,null,null,null,null,null,"[3,2]"
NA,canvas-keyboard-response,321,243971,0.0-6.0-3.52,5011,NA,NA,NA,NA,clear_screen,null,null,NA,NA,critical,d,c,t,220.0396,154.6796,164,240,240,164,trueblood,0.14,w,240,164,164,240,220.0396,154.6796,39360,39360,34035.6388,tc,null,null,null,null,null,null,"[3,2]"
NA,canvas-keyboard-response,322,244496,0.0-6.0-4.52,5011,NA,NA,NA,NA,make choice,500,2,NA,NA,critical,d,c,t,220.0396,154.6796,164,240,240,164,trueblood,0.14,w,240,164,164,240,220.0396,154.6796,39360,39360,34035.6388,tc,null,null,null,null,null,null,"[3,2]"
NA,canvas-keyboard-response,323,244668,0.0-6.0-5.52,5011,NA,NA,NA,NA,clear_screen,null,null,NA,NA,critical,d,c,t,220.0396,154.6796,164,240,240,164,trueblood,0.14,w,240,164,164,240,220.0396,154.6796,39360,39360,34035.6388,tc,null,null,null,null,null,null,"[3,2]"
NA,canvas-keyboard-response,324,244885,0.0-6.0-0.53,5011,NA,NA,NA,NA,pre trial waiting period,null,null,NA,NA,catch,sw,sh,l,180,200,197,213,208,283,spektor,null,null,null,null,null,null,null,null,null,null,null,NA,180,200,260,200,36000,52000,"[1,3]"
NA,canvas-keyboard-response,325,245044,0.0-6.0-1.53,5011,NA,NA,NA,NA,clear_screen,null,null,NA,NA,catch,sw,sh,l,180,200,197,213,208,283,spektor,null,null,null,null,null,null,null,null,null,null,null,NA,180,200,260,200,36000,52000,"[1,3]"
NA,canvas-keyboard-response,326,246395,0.0-6.0-2.53,5011,NA,NA,NA,NA,rectangles,null,null,NA,NA,catch,sw,sh,l,180,200,197,213,208,283,spektor,null,null,null,null,null,null,null,null,null,null,null,NA,180,200,260,200,36000,52000,"[1,3]"
NA,canvas-keyboard-response,327,246568,0.0-6.0-3.53,5011,NA,NA,NA,NA,clear_screen,null,null,NA,NA,catch,sw,sh,l,180,200,197,213,208,283,spektor,null,null,null,null,null,null,null,null,null,null,null,NA,180,200,260,200,36000,52000,"[1,3]"
NA,canvas-keyboard-response,328,247184,0.0-6.0-4.53,5011,NA,NA,NA,NA,make choice,592,3,NA,NA,catch,sw,sh,l,180,200,197,213,208,283,spektor,null,null,null,null,null,null,null,null,null,null,null,NA,180,200,260,200,36000,52000,"[1,3]"
NA,canvas-keyboard-response,329,247357,0.0-6.0-5.53,5011,NA,NA,NA,NA,clear_screen,null,null,NA,NA,catch,sw,sh,l,180,200,197,213,208,283,spektor,null,null,null,null,null,null,null,null,null,null,null,NA,180,200,260,200,36000,52000,"[1,3]"
NA,canvas-keyboard-response,330,247577,0.0-6.0-0.54,5011,NA,NA,NA,NA,pre trial waiting period,null,null,NA,NA,critical,c,d,t,240,164,158.0083,227.1683,164,240,trueblood,0.09,h,164,240,240,164,158.0083,227.1683,39360,39360,35894.4834,tc,null,null,null,null,null,null,"[3,1]"
NA,canvas-keyboard-response,331,247736,0.0-6.0-1.54,5011,NA,NA,NA,NA,clear_screen,null,null,NA,NA,critical,c,d,t,240,164,158.0083,227.1683,164,240,trueblood,0.09,h,164,240,240,164,158.0083,227.1683,39360,39360,35894.4834,tc,null,null,null,null,null,null,"[3,1]"
NA,canvas-keyboard-response,332,249087,0.0-6.0-2.54,5011,NA,NA,NA,NA,rectangles,null,null,NA,NA,critical,c,d,t,240,164,158.0083,227.1683,164,240,trueblood,0.09,h,164,240,240,164,158.0083,227.1683,39360,39360,35894.4834,tc,null,null,null,null,null,null,"[3,1]"
NA,canvas-keyboard-response,333,249261,0.0-6.0-3.54,5011,NA,NA,NA,NA,clear_screen,null,null,NA,NA,critical,c,d,t,240,164,158.0083,227.1683,164,240,trueblood,0.09,h,164,240,240,164,158.0083,227.1683,39360,39360,35894.4834,tc,null,null,null,null,null,null,"[3,1]"
NA,canvas-keyboard-response,334,249625,0.0-6.0-4.54,5011,NA,NA,NA,NA,make choice,340,1,NA,NA,critical,c,d,t,240,164,158.0083,227.1683,164,240,trueblood,0.09,h,164,240,240,164,158.0083,227.1683,39360,39360,35894.4834,tc,null,null,null,null,null,null,"[3,1]"
NA,canvas-keyboard-response,335,249797,0.0-6.0-5.54,5011,NA,NA,NA,NA,clear_screen,null,null,NA,NA,critical,c,d,t,240,164,158.0083,227.1683,164,240,trueblood,0.09,h,164,240,240,164,158.0083,227.1683,39360,39360,35894.4834,tc,null,null,null,null,null,null,"[3,1]"
NA,canvas-keyboard-response,336,250015,0.0-6.0-0.55,5011,NA,NA,NA,NA,pre trial waiting period,null,null,NA,NA,critical,t,d,c,240,164,240,164,164,240,trueblood,0,w,240,164,164,240,240,164,39360,39360,39360,tc,null,null,null,null,null,null,"[1,3]"
NA,canvas-keyboard-response,337,250175,0.0-6.0-1.55,5011,NA,NA,NA,NA,clear_screen,null,null,NA,NA,critical,t,d,c,240,164,240,164,164,240,trueblood,0,w,240,164,164,240,240,164,39360,39360,39360,tc,null,null,null,null,null,null,"[1,3]"
NA,canvas-keyboard-response,338,251524,0.0-6.0-2.55,5011,NA,NA,NA,NA,rectangles,null,null,NA,NA,critical,t,d,c,240,164,240,164,164,240,trueblood,0,w,240,164,164,240,240,164,39360,39360,39360,tc,null,null,null,null,null,null,"[1,3]"
NA,canvas-keyboard-response,339,251701,0.0-6.0-3.55,5011,NA,NA,NA,NA,clear_screen,null,null,NA,NA,critical,t,d,c,240,164,240,164,164,240,trueblood,0,w,240,164,164,240,240,164,39360,39360,39360,tc,null,null,null,null,null,null,"[1,3]"
NA,canvas-keyboard-response,340,252057,0.0-6.0-4.55,5011,NA,NA,NA,NA,make choice,330,1,NA,NA,critical,t,d,c,240,164,240,164,164,240,trueblood,0,w,240,164,164,240,240,164,39360,39360,39360,tc,null,null,null,null,null,null,"[1,3]"
NA,canvas-keyboard-response,341,252095,0.0-6.0-5.55,5011,NA,NA,NA,NA,clear_screen,1,2,NA,NA,critical,t,d,c,240,164,240,164,164,240,trueblood,0,w,240,164,164,240,240,164,39360,39360,39360,tc,null,null,null,null,null,null,"[1,3]"
NA,canvas-keyboard-response,342,252323,0.0-6.0-0.56,5011,NA,NA,NA,NA,pre trial waiting period,null,null,NA,NA,catch,sh,sw,l,228,149,193,214,179,281,spektor,null,null,null,null,null,null,null,null,null,null,null,NA,180,200,260,200,36000,52000,"[1,3]"
NA,canvas-keyboard-response,343,252485,0.0-6.0-1.56,5011,NA,NA,NA,NA,clear_screen,null,null,NA,NA,catch,sh,sw,l,228,149,193,214,179,281,spektor,null,null,null,null,null,null,null,null,null,null,null,NA,180,200,260,200,36000,52000,"[1,3]"
NA,canvas-keyboard-response,344,253839,0.0-6.0-2.56,5011,NA,NA,NA,NA,rectangles,null,null,NA,NA,catch,sh,sw,l,228,149,193,214,179,281,spektor,null,null,null,null,null,null,null,null,null,null,null,NA,180,200,260,200,36000,52000,"[1,3]"
NA,canvas-keyboard-response,345,254014,0.0-6.0-3.56,5011,NA,NA,NA,NA,clear_screen,null,null,NA,NA,catch,sh,sw,l,228,149,193,214,179,281,spektor,null,null,null,null,null,null,null,null,null,null,null,NA,180,200,260,200,36000,52000,"[1,3]"
NA,canvas-keyboard-response,346,254353,0.0-6.0-4.56,5011,NA,NA,NA,NA,make choice,313,3,NA,NA,catch,sh,sw,l,228,149,193,214,179,281,spektor,null,null,null,null,null,null,null,null,null,null,null,NA,180,200,260,200,36000,52000,"[1,3]"
NA,canvas-keyboard-response,347,254526,0.0-6.0-5.56,5011,NA,NA,NA,NA,clear_screen,null,null,NA,NA,catch,sh,sw,l,228,149,193,214,179,281,spektor,null,null,null,null,null,null,null,null,null,null,null,NA,180,200,260,200,36000,52000,"[1,3]"
NA,canvas-keyboard-response,348,254743,0.0-6.0-0.57,5011,NA,NA,NA,NA,pre trial waiting period,null,null,NA,NA,catch,l,sw,sh,251,236,185,226,183,151,spektor,null,null,null,null,null,null,null,null,null,null,null,NA,180,200,260,200,36000,52000,"[1,3]"
NA,canvas-keyboard-response,349,254904,0.0-6.0-1.57,5011,NA,NA,NA,NA,clear_screen,null,null,NA,NA,catch,l,sw,sh,251,236,185,226,183,151,spektor,null,null,null,null,null,null,null,null,null,null,null,NA,180,200,260,200,36000,52000,"[1,3]"
NA,canvas-keyboard-response,350,256256,0.0-6.0-2.57,5011,NA,NA,NA,NA,rectangles,null,null,NA,NA,catch,l,sw,sh,251,236,185,226,183,151,spektor,null,null,null,null,null,null,null,null,null,null,null,NA,180,200,260,200,36000,52000,"[1,3]"
NA,canvas-keyboard-response,351,256431,0.0-6.0-3.57,5011,NA,NA,NA,NA,clear_screen,null,null,NA,NA,catch,l,sw,sh,251,236,185,226,183,151,spektor,null,null,null,null,null,null,null,null,null,null,null,NA,180,200,260,200,36000,52000,"[1,3]"
NA,canvas-keyboard-response,352,256865,0.0-6.0-4.57,5011,NA,NA,NA,NA,make choice,407,1,NA,NA,catch,l,sw,sh,251,236,185,226,183,151,spektor,null,null,null,null,null,null,null,null,null,null,null,NA,180,200,260,200,36000,52000,"[1,3]"
NA,canvas-keyboard-response,353,257039,0.0-6.0-5.57,5011,NA,NA,NA,NA,clear_screen,null,null,NA,NA,catch,l,sw,sh,251,236,185,226,183,151,spektor,null,null,null,null,null,null,null,null,null,null,null,NA,180,200,260,200,36000,52000,"[1,3]"
NA,canvas-keyboard-response,354,257258,0.0-6.0-0.58,5011,NA,NA,NA,NA,pre trial waiting period,null,null,NA,NA,critical,d,t,c,220.0396,154.6796,240,164,164,240,spektor,0.14,w,240,164,164,240,220.0396,154.6796,39360,39360,34035.6388,td,null,null,null,null,null,null,"[2,1]"
NA,canvas-keyboard-response,355,257418,0.0-6.0-1.58,5011,NA,NA,NA,NA,clear_screen,null,null,NA,NA,critical,d,t,c,220.0396,154.6796,240,164,164,240,spektor,0.14,w,240,164,164,240,220.0396,154.6796,39360,39360,34035.6388,td,null,null,null,null,null,null,"[2,1]"
NA,canvas-keyboard-response,356,258768,0.0-6.0-2.58,5011,NA,NA,NA,NA,rectangles,null,null,NA,NA,critical,d,t,c,220.0396,154.6796,240,164,164,240,spektor,0.14,w,240,164,164,240,220.0396,154.6796,39360,39360,34035.6388,td,null,null,null,null,null,null,"[2,1]"
NA,canvas-keyboard-response,357,258943,0.0-6.0-3.58,5011,NA,NA,NA,NA,clear_screen,null,null,NA,NA,critical,d,t,c,220.0396,154.6796,240,164,164,240,spektor,0.14,w,240,164,164,240,220.0396,154.6796,39360,39360,34035.6388,td,null,null,null,null,null,null,"[2,1]"
NA,canvas-keyboard-response,358,260624,0.0-6.0-4.58,5011,NA,NA,NA,NA,make choice,1658,2,NA,NA,critical,d,t,c,220.0396,154.6796,240,164,164,240,spektor,0.14,w,240,164,164,240,220.0396,154.6796,39360,39360,34035.6388,td,null,null,null,null,null,null,"[2,1]"
NA,canvas-keyboard-response,359,260816,0.0-6.0-5.58,5011,NA,NA,NA,NA,clear_screen,null,null,NA,NA,critical,d,t,c,220.0396,154.6796,240,164,164,240,spektor,0.14,w,240,164,164,240,220.0396,154.6796,39360,39360,34035.6388,td,null,null,null,null,null,null,"[2,1]"
NA,canvas-keyboard-response,360,261049,0.0-6.0-0.59,5011,NA,NA,NA,NA,pre trial waiting period,null,null,NA,NA,critical,d,c,t,164,240,240,164,164,240,spektor,0,h,164,240,240,164,164,240,39360,39360,39360,td,null,null,null,null,null,null,"[3,1]"
NA,canvas-keyboard-response,361,261211,0.0-6.0-1.59,5011,NA,NA,NA,NA,clear_screen,null,null,NA,NA,critical,d,c,t,164,240,240,164,164,240,spektor,0,h,164,240,240,164,164,240,39360,39360,39360,td,null,null,null,null,null,null,"[3,1]"
NA,canvas-keyboard-response,362,262576,0.0-6.0-2.59,5011,NA,NA,NA,NA,rectangles,null,null,NA,NA,critical,d,c,t,164,240,240,164,164,240,spektor,0,h,164,240,240,164,164,240,39360,39360,39360,td,null,null,null,null,null,null,"[3,1]"
NA,canvas-keyboard-response,363,262755,0.0-6.0-3.59,5011,NA,NA,NA,NA,clear_screen,null,null,NA,NA,critical,d,c,t,164,240,240,164,164,240,spektor,0,h,164,240,240,164,164,240,39360,39360,39360,td,null,null,null,null,null,null,"[3,1]"
NA,canvas-keyboard-response,364,263344,0.0-6.0-4.59,5011,NA,NA,NA,NA,make choice,558,1,NA,NA,critical,d,c,t,164,240,240,164,164,240,spektor,0,h,164,240,240,164,164,240,39360,39360,39360,td,null,null,null,null,null,null,"[3,1]"
NA,canvas-keyboard-response,365,263524,0.0-6.0-5.59,5011,NA,NA,NA,NA,clear_screen,null,null,NA,NA,critical,d,c,t,164,240,240,164,164,240,spektor,0,h,164,240,240,164,164,240,39360,39360,39360,td,null,null,null,null,null,null,"[3,1]"
NA,canvas-keyboard-response,366,263746,0.0-6.0-0.60,5011,NA,NA,NA,NA,pre trial waiting period,null,null,NA,NA,critical,c,d,t,240,164,160.6713,232.8713,164,240,trueblood,0.05,h,164,240,240,164,160.6713,232.8713,39360,39360,37415.7294,tc,null,null,null,null,null,null,"[3,1]"
NA,canvas-keyboard-response,367,263906,0.0-6.0-1.60,5011,NA,NA,NA,NA,clear_screen,null,null,NA,NA,critical,c,d,t,240,164,160.6713,232.8713,164,240,trueblood,0.05,h,164,240,240,164,160.6713,232.8713,39360,39360,37415.7294,tc,null,null,null,null,null,null,"[3,1]"
NA,canvas-keyboard-response,368,265262,0.0-6.0-2.60,5011,NA,NA,NA,NA,rectangles,null,null,NA,NA,critical,c,d,t,240,164,160.6713,232.8713,164,240,trueblood,0.05,h,164,240,240,164,160.6713,232.8713,39360,39360,37415.7294,tc,null,null,null,null,null,null,"[3,1]"
NA,canvas-keyboard-response,369,265439,0.0-6.0-3.60,5011,NA,NA,NA,NA,clear_screen,null,null,NA,NA,critical,c,d,t,240,164,160.6713,232.8713,164,240,trueblood,0.05,h,164,240,240,164,160.6713,232.8713,39360,39360,37415.7294,tc,null,null,null,null,null,null,"[3,1]"
NA,canvas-keyboard-response,370,265768,0.0-6.0-4.60,5011,NA,NA,NA,NA,make choice,295,1,NA,NA,critical,c,d,t,240,164,160.6713,232.8713,164,240,trueblood,0.05,h,164,240,240,164,160.6713,232.8713,39360,39360,37415.7294,tc,null,null,null,null,null,null,"[3,1]"
NA,canvas-keyboard-response,371,265948,0.0-6.0-5.60,5011,NA,NA,NA,NA,clear_screen,null,null,NA,NA,critical,c,d,t,240,164,160.6713,232.8713,164,240,trueblood,0.05,h,164,240,240,164,160.6713,232.8713,39360,39360,37415.7294,tc,null,null,null,null,null,null,"[3,1]"
NA,canvas-keyboard-response,372,266167,0.0-6.0-0.61,5011,NA,NA,NA,NA,pre trial waiting period,null,null,NA,NA,critical,c,t,d,164,240,240,164,240,164,spektor,0,w,240,164,164,240,240,164,39360,39360,39360,td,null,null,null,null,null,null,"[2,3]"
NA,canvas-keyboard-response,373,266327,0.0-6.0-1.61,5011,NA,NA,NA,NA,clear_screen,null,null,NA,NA,critical,c,t,d,164,240,240,164,240,164,spektor,0,w,240,164,164,240,240,164,39360,39360,39360,td,null,null,null,null,null,null,"[2,3]"
NA,canvas-keyboard-response,374,267681,0.0-6.0-2.61,5011,NA,NA,NA,NA,rectangles,null,null,NA,NA,critical,c,t,d,164,240,240,164,240,164,spektor,0,w,240,164,164,240,240,164,39360,39360,39360,td,null,null,null,null,null,null,"[2,3]"
NA,canvas-keyboard-response,375,267861,0.0-6.0-3.61,5011,NA,NA,NA,NA,clear_screen,null,null,NA,NA,critical,c,t,d,164,240,240,164,240,164,spektor,0,w,240,164,164,240,240,164,39360,39360,39360,td,null,null,null,null,null,null,"[2,3]"
NA,canvas-keyboard-response,376,269279,0.0-6.0-4.61,5011,NA,NA,NA,NA,make choice,1391,3,NA,NA,critical,c,t,d,164,240,240,164,240,164,spektor,0,w,240,164,164,240,240,164,39360,39360,39360,td,null,null,null,null,null,null,"[2,3]"
NA,canvas-keyboard-response,377,269458,0.0-6.0-5.61,5011,NA,NA,NA,NA,clear_screen,null,null,NA,NA,critical,c,t,d,164,240,240,164,240,164,spektor,0,w,240,164,164,240,240,164,39360,39360,39360,td,null,null,null,null,null,null,"[2,3]"
NA,canvas-keyboard-response,378,269682,0.0-6.0-0.62,5011,NA,NA,NA,NA,pre trial waiting period,null,null,NA,NA,catch,sw,sh,l,180,200,195,204,236,239,spektor,null,null,null,null,null,null,null,null,null,null,null,NA,180,200,260,200,36000,52000,"[2,3]"
NA,canvas-keyboard-response,379,269841,0.0-6.0-1.62,5011,NA,NA,NA,NA,clear_screen,null,null,NA,NA,catch,sw,sh,l,180,200,195,204,236,239,spektor,null,null,null,null,null,null,null,null,null,null,null,NA,180,200,260,200,36000,52000,"[2,3]"
NA,canvas-keyboard-response,380,271198,0.0-6.0-2.62,5011,NA,NA,NA,NA,rectangles,null,null,NA,NA,catch,sw,sh,l,180,200,195,204,236,239,spektor,null,null,null,null,null,null,null,null,null,null,null,NA,180,200,260,200,36000,52000,"[2,3]"
NA,canvas-keyboard-response,381,271376,0.0-6.0-3.62,5011,NA,NA,NA,NA,clear_screen,null,null,NA,NA,catch,sw,sh,l,180,200,195,204,236,239,spektor,null,null,null,null,null,null,null,null,null,null,null,NA,180,200,260,200,36000,52000,"[2,3]"
NA,canvas-keyboard-response,382,271745,0.0-6.0-4.62,5011,NA,NA,NA,NA,make choice,338,3,NA,NA,catch,sw,sh,l,180,200,195,204,236,239,spektor,null,null,null,null,null,null,null,null,null,null,null,NA,180,200,260,200,36000,52000,"[2,3]"
NA,canvas-keyboard-response,383,271921,0.0-6.0-5.62,5011,NA,NA,NA,NA,clear_screen,null,null,NA,NA,catch,sw,sh,l,180,200,195,204,236,239,spektor,null,null,null,null,null,null,null,null,null,null,null,NA,180,200,260,200,36000,52000,"[2,3]"
NA,canvas-keyboard-response,384,272146,0.0-6.0-0.63,5011,NA,NA,NA,NA,pre trial waiting period,null,null,NA,NA,critical,c,t,d,240,164,164,240,154.6796,220.0396,spektor,0.14,h,164,240,240,164,154.6796,220.0396,39360,39360,34035.6388,tc,null,null,null,null,null,null,"[2,1]"
NA,canvas-keyboard-response,385,272305,0.0-6.0-1.63,5011,NA,NA,NA,NA,clear_screen,null,null,NA,NA,critical,c,t,d,240,164,164,240,154.6796,220.0396,spektor,0.14,h,164,240,240,164,154.6796,220.0396,39360,39360,34035.6388,tc,null,null,null,null,null,null,"[2,1]"
NA,canvas-keyboard-response,386,273661,0.0-6.0-2.63,5011,NA,NA,NA,NA,rectangles,null,null,NA,NA,critical,c,t,d,240,164,164,240,154.6796,220.0396,spektor,0.14,h,164,240,240,164,154.6796,220.0396,39360,39360,34035.6388,tc,null,null,null,null,null,null,"[2,1]"
NA,canvas-keyboard-response,387,273839,0.0-6.0-3.63,5011,NA,NA,NA,NA,clear_screen,null,null,NA,NA,critical,c,t,d,240,164,164,240,154.6796,220.0396,spektor,0.14,h,164,240,240,164,154.6796,220.0396,39360,39360,34035.6388,tc,null,null,null,null,null,null,"[2,1]"
NA,canvas-keyboard-response,388,275168,0.0-6.0-4.63,5011,NA,NA,NA,NA,make choice,1299,1,NA,NA,critical,c,t,d,240,164,164,240,154.6796,220.0396,spektor,0.14,h,164,240,240,164,154.6796,220.0396,39360,39360,34035.6388,tc,null,null,null,null,null,null,"[2,1]"
NA,canvas-keyboard-response,389,275345,0.0-6.0-5.63,5011,NA,NA,NA,NA,clear_screen,null,null,NA,NA,critical,c,t,d,240,164,164,240,154.6796,220.0396,spektor,0.14,h,164,240,240,164,154.6796,220.0396,39360,39360,34035.6388,tc,null,null,null,null,null,null,"[2,1]"
NA,canvas-keyboard-response,390,275567,0.0-6.0-0.64,5011,NA,NA,NA,NA,pre trial waiting period,null,null,NA,NA,critical,d,t,c,158.0083,227.1683,164,240,240,164,spektor,0.09,h,164,240,240,164,158.0083,227.1683,39360,39360,35894.4834,dc,null,null,null,null,null,null,"[1,3]"
NA,canvas-keyboard-response,391,275726,0.0-6.0-1.64,5011,NA,NA,NA,NA,clear_screen,null,null,NA,NA,critical,d,t,c,158.0083,227.1683,164,240,240,164,spektor,0.09,h,164,240,240,164,158.0083,227.1683,39360,39360,35894.4834,dc,null,null,null,null,null,null,"[1,3]"
NA,canvas-keyboard-response,392,277081,0.0-6.0-2.64,5011,NA,NA,NA,NA,rectangles,null,null,NA,NA,critical,d,t,c,158.0083,227.1683,164,240,240,164,spektor,0.09,h,164,240,240,164,158.0083,227.1683,39360,39360,35894.4834,dc,null,null,null,null,null,null,"[1,3]"
NA,canvas-keyboard-response,393,277274,0.0-6.0-3.64,5011,NA,NA,NA,NA,clear_screen,null,null,NA,NA,critical,d,t,c,158.0083,227.1683,164,240,240,164,spektor,0.09,h,164,240,240,164,158.0083,227.1683,39360,39360,35894.4834,dc,null,null,null,null,null,null,"[1,3]"
NA,canvas-keyboard-response,394,278176,0.0-6.0-4.64,5011,NA,NA,NA,NA,make choice,878,3,NA,NA,critical,d,t,c,158.0083,227.1683,164,240,240,164,spektor,0.09,h,164,240,240,164,158.0083,227.1683,39360,39360,35894.4834,dc,null,null,null,null,null,null,"[1,3]"
NA,canvas-keyboard-response,395,278356,0.0-6.0-5.64,5011,NA,NA,NA,NA,clear_screen,null,null,NA,NA,critical,d,t,c,158.0083,227.1683,164,240,240,164,spektor,0.09,h,164,240,240,164,158.0083,227.1683,39360,39360,35894.4834,dc,null,null,null,null,null,null,"[1,3]"
NA,canvas-keyboard-response,396,278580,0.0-6.0-0.65,5011,NA,NA,NA,NA,pre trial waiting period,null,null,NA,NA,catch,sw,sh,l,180,200,214,172,298,180,trueblood,null,null,null,null,null,null,null,null,null,null,null,NA,180,200,260,200,36000,52000,"[1,3]"
