success,trial_type,trial_index,time_elapsed,internal_node_id,sub_n,timeout,failed_images,failed_audio,failed_video,screen_id,rt,response,stimulus,view_history,trial,r1,r2,r3,w1,h1,w2,h2,w3,h3,display,tdd,tdo,tw,th,cw,ch,dw,dh,ta,ca,da,probe,csls,csss,clls,clss,sa,la,probe_rects
TRUE,fullscreen,0,6869,0.0-0.0,61,,,,,,,,,,,,,,,,,,,,,,,,,,,,,,,,,,,,,,,
TRUE,preload,1,6887,0.0-1.0,61,FALSE,[],[],[],img preload,,,,,,,,,,,,,,,,,,,,,,,,,,,,,,,,,,
,survey-html-form,2,24984,0.0-2.0,61,,,,,enter-sub-number,18091,"{""response"":""45""}",,,,,,,,,,,,,,,,,,,,,,,,,,,,,,,,
,image-button-response,3,78599,0.0-3.0,61,,,,,,53546,0,consent.png,,,,,,,,,,,,,,,,,,,,,,,,,,,,,,,
,html-button-response,4,87022,0.0-4.0,61,,,,,intro mssg,8416,0,"<div style= ""font-size:25px;"" <p> <strong> Welcome! </strong><br> <p style=""color:#8B0000; font-size:25px;""><strong> Please do NOT exit full screen until you are done with the experiment. </strong> </p><p style=""font-size:25px;color:#8B0000;""> <strong> Your data will be lost <br> if you try to go back or refresh the page after the experiment starts. Feel free to click ""previous"" during the instructions, however.</strong> </p><br><p> <strong> Thanks in advance for your contribution to our research! </strong></p>",,,,,,,,,,,,,,,,,,,,,,,,,,,,,,,
,instructions,5,134077,0.0-5.0,61,,,,,instructions,47050,,,"[{""page_index"":0,""viewing_time"":14114},{""page_index"":1,""viewing_time"":8536},{""page_index"":2,""viewing_time"":2463},{""page_index"":3,""viewing_time"":11351},{""page_index"":4,""viewing_time"":3873},{""page_index"":5,""viewing_time"":2080},{""page_index"":6,""viewing_time"":3480},{""page_index"":7,""viewing_time"":1152}]",,,,,,,,,,,,,,,,,,,,,,,,,,,,,,
,canvas-keyboard-response,6,134283,0.0-6.0-0.0,61,,,,,pre trial waiting period,null,null,,,critical,d,c,t,160.6713,232.8713,240,164,164,240,trueblood,0.05,h,164,240,240,164,160.6713,232.8713,39360,39360,37415.7294,td,null,null,null,null,null,null,"[3,1]"
,canvas-keyboard-response,7,134446,0.0-6.0-1.0,61,,,,,clear_screen,null,null,,,critical,d,c,t,160.6713,232.8713,240,164,164,240,trueblood,0.05,h,164,240,240,164,160.6713,232.8713,39360,39360,37415.7294,td,null,null,null,null,null,null,"[3,1]"
,canvas-keyboard-response,8,135786,0.0-6.0-2.0,61,,,,,rectangles,null,null,,,critical,d,c,t,160.6713,232.8713,240,164,164,240,trueblood,0.05,h,164,240,240,164,160.6713,232.8713,39360,39360,37415.7294,td,null,null,null,null,null,null,"[3,1]"
,canvas-keyboard-response,9,135947,0.0-6.0-3.0,61,,,,,clear_screen,null,null,,,critical,d,c,t,160.6713,232.8713,240,164,164,240,trueblood,0.05,h,164,240,240,164,160.6713,232.8713,39360,39360,37415.7294,td,null,null,null,null,null,null,"[3,1]"
,canvas-keyboard-response,10,138318,0.0-6.0-4.0,61,,,,,make choice,2359,3,,,critical,d,c,t,160.6713,232.8713,240,164,164,240,trueblood,0.05,h,164,240,240,164,160.6713,232.8713,39360,39360,37415.7294,td,null,null,null,null,null,null,"[3,1]"
,canvas-keyboard-response,11,138477,0.0-6.0-5.0,61,,,,,clear_screen,null,null,,,critical,d,c,t,160.6713,232.8713,240,164,164,240,trueblood,0.05,h,164,240,240,164,160.6713,232.8713,39360,39360,37415.7294,td,null,null,null,null,null,null,"[3,1]"
,canvas-keyboard-response,12,138680,0.0-6.0-0.1,61,,,,,pre trial waiting period,null,null,,,critical,d,c,t,220.0396,154.6796,164,240,240,164,spektor,0.14,w,240,164,164,240,220.0396,154.6796,39360,39360,34035.6388,td,null,null,null,null,null,null,"[3,1]"
,canvas-keyboard-response,13,138841,0.0-6.0-1.1,61,,,,,clear_screen,null,null,,,critical,d,c,t,220.0396,154.6796,164,240,240,164,spektor,0.14,w,240,164,164,240,220.0396,154.6796,39360,39360,34035.6388,td,null,null,null,null,null,null,"[3,1]"
,canvas-keyboard-response,14,140181,0.0-6.0-2.1,61,,,,,rectangles,null,null,,,critical,d,c,t,220.0396,154.6796,164,240,240,164,spektor,0.14,w,240,164,164,240,220.0396,154.6796,39360,39360,34035.6388,td,null,null,null,null,null,null,"[3,1]"
,canvas-keyboard-response,15,140345,0.0-6.0-3.1,61,,,,,clear_screen,null,null,,,critical,d,c,t,220.0396,154.6796,164,240,240,164,spektor,0.14,w,240,164,164,240,220.0396,154.6796,39360,39360,34035.6388,td,null,null,null,null,null,null,"[3,1]"
,canvas-keyboard-response,16,142340,0.0-6.0-4.1,61,,,,,make choice,1982,3,,,critical,d,c,t,220.0396,154.6796,164,240,240,164,spektor,0.14,w,240,164,164,240,220.0396,154.6796,39360,39360,34035.6388,td,null,null,null,null,null,null,"[3,1]"
,canvas-keyboard-response,17,142501,0.0-6.0-5.1,61,,,,,clear_screen,null,null,,,critical,d,c,t,220.0396,154.6796,164,240,240,164,spektor,0.14,w,240,164,164,240,220.0396,154.6796,39360,39360,34035.6388,td,null,null,null,null,null,null,"[3,1]"
,canvas-keyboard-response,18,142702,0.0-6.0-0.2,61,,,,,pre trial waiting period,null,null,,,catch,sh,sw,l,233,201,204,224,218,240,trueblood,null,null,null,null,null,null,null,null,null,null,null,,180,200,260,200,36000,52000,"[1,3]"
,canvas-keyboard-response,19,142864,0.0-6.0-1.2,61,,,,,clear_screen,null,null,,,catch,sh,sw,l,233,201,204,224,218,240,trueblood,null,null,null,null,null,null,null,null,null,null,null,,180,200,260,200,36000,52000,"[1,3]"
,canvas-keyboard-response,20,144199,0.0-6.0-2.2,61,,,,,rectangles,null,null,,,catch,sh,sw,l,233,201,204,224,218,240,trueblood,null,null,null,null,null,null,null,null,null,null,null,,180,200,260,200,36000,52000,"[1,3]"
,canvas-keyboard-response,21,144364,0.0-6.0-3.2,61,,,,,clear_screen,null,null,,,catch,sh,sw,l,233,201,204,224,218,240,trueblood,null,null,null,null,null,null,null,null,null,null,null,,180,200,260,200,36000,52000,"[1,3]"
,canvas-keyboard-response,22,145707,0.0-6.0-4.2,61,,,,,make choice,1330,1,,,catch,sh,sw,l,233,201,204,224,218,240,trueblood,null,null,null,null,null,null,null,null,null,null,null,,180,200,260,200,36000,52000,"[1,3]"
,canvas-keyboard-response,23,145869,0.0-6.0-5.2,61,,,,,clear_screen,null,null,,,catch,sh,sw,l,233,201,204,224,218,240,trueblood,null,null,null,null,null,null,null,null,null,null,null,,180,200,260,200,36000,52000,"[1,3]"
,canvas-keyboard-response,24,146070,0.0-6.0-0.3,61,,,,,pre trial waiting period,null,null,,,critical,d,t,c,164,240,164,240,240,164,spektor,0,h,164,240,240,164,164,240,39360,39360,39360,dc,null,null,null,null,null,null,"[1,3]"
,canvas-keyboard-response,25,146231,0.0-6.0-1.3,61,,,,,clear_screen,null,null,,,critical,d,t,c,164,240,164,240,240,164,spektor,0,h,164,240,240,164,164,240,39360,39360,39360,dc,null,null,null,null,null,null,"[1,3]"
,canvas-keyboard-response,26,147567,0.0-6.0-2.3,61,,,,,rectangles,null,null,,,critical,d,t,c,164,240,164,240,240,164,spektor,0,h,164,240,240,164,164,240,39360,39360,39360,dc,null,null,null,null,null,null,"[1,3]"
,canvas-keyboard-response,27,147731,0.0-6.0-3.3,61,,,,,clear_screen,null,null,,,critical,d,t,c,164,240,164,240,240,164,spektor,0,h,164,240,240,164,164,240,39360,39360,39360,dc,null,null,null,null,null,null,"[1,3]"
,canvas-keyboard-response,28,149068,0.0-6.0-4.3,61,,,,,make choice,1328,1,,,critical,d,t,c,164,240,164,240,240,164,spektor,0,h,164,240,240,164,164,240,39360,39360,39360,dc,null,null,null,null,null,null,"[1,3]"
,canvas-keyboard-response,29,149228,0.0-6.0-5.3,61,,,,,clear_screen,null,null,,,critical,d,t,c,164,240,164,240,240,164,spektor,0,h,164,240,240,164,164,240,39360,39360,39360,dc,null,null,null,null,null,null,"[1,3]"
,canvas-keyboard-response,30,149429,0.0-6.0-0.4,61,,,,,pre trial waiting period,null,null,,,catch,l,sh,sw,172,298,206,173,174,181,spektor,null,null,null,null,null,null,null,null,null,null,null,,180,200,260,200,36000,52000,"[1,3]"
,canvas-keyboard-response,31,149591,0.0-6.0-1.4,61,,,,,clear_screen,null,null,,,catch,l,sh,sw,172,298,206,173,174,181,spektor,null,null,null,null,null,null,null,null,null,null,null,,180,200,260,200,36000,52000,"[1,3]"
,canvas-keyboard-response,32,150926,0.0-6.0-2.4,61,,,,,rectangles,null,null,,,catch,l,sh,sw,172,298,206,173,174,181,spektor,null,null,null,null,null,null,null,null,null,null,null,,180,200,260,200,36000,52000,"[1,3]"
,canvas-keyboard-response,33,151090,0.0-6.0-3.4,61,,,,,clear_screen,null,null,,,catch,l,sh,sw,172,298,206,173,174,181,spektor,null,null,null,null,null,null,null,null,null,null,null,,180,200,260,200,36000,52000,"[1,3]"
,canvas-keyboard-response,34,151900,0.0-6.0-4.4,61,,,,,make choice,797,1,,,catch,l,sh,sw,172,298,206,173,174,181,spektor,null,null,null,null,null,null,null,null,null,null,null,,180,200,260,200,36000,52000,"[1,3]"
,canvas-keyboard-response,35,152060,0.0-6.0-5.4,61,,,,,clear_screen,null,null,,,catch,l,sh,sw,172,298,206,173,174,181,spektor,null,null,null,null,null,null,null,null,null,null,null,,180,200,260,200,36000,52000,"[1,3]"
,canvas-keyboard-response,36,152263,0.0-6.0-0.5,61,,,,,pre trial waiting period,null,null,,,critical,t,c,d,164,240,240,164,162.6685,237.1485,spektor,0.02,h,164,240,240,164,162.6685,237.1485,39360,39360,38576.5967,tc,null,null,null,null,null,null,"[1,2]"
,canvas-keyboard-response,37,152422,0.0-6.0-1.5,61,,,,,clear_screen,null,null,,,critical,t,c,d,164,240,240,164,162.6685,237.1485,spektor,0.02,h,164,240,240,164,162.6685,237.1485,39360,39360,38576.5967,tc,null,null,null,null,null,null,"[1,2]"
,canvas-keyboard-response,38,153758,0.0-6.0-2.5,61,,,,,rectangles,null,null,,,critical,t,c,d,164,240,240,164,162.6685,237.1485,spektor,0.02,h,164,240,240,164,162.6685,237.1485,39360,39360,38576.5967,tc,null,null,null,null,null,null,"[1,2]"
,canvas-keyboard-response,39,153920,0.0-6.0-3.5,61,,,,,clear_screen,null,null,,,critical,t,c,d,164,240,240,164,162.6685,237.1485,spektor,0.02,h,164,240,240,164,162.6685,237.1485,39360,39360,38576.5967,tc,null,null,null,null,null,null,"[1,2]"
,canvas-keyboard-response,40,156596,0.0-6.0-4.5,61,,,,,make choice,2666,1,,,critical,t,c,d,164,240,240,164,162.6685,237.1485,spektor,0.02,h,164,240,240,164,162.6685,237.1485,39360,39360,38576.5967,tc,null,null,null,null,null,null,"[1,2]"
,canvas-keyboard-response,41,156757,0.0-6.0-5.5,61,,,,,clear_screen,null,null,,,critical,t,c,d,164,240,240,164,162.6685,237.1485,spektor,0.02,h,164,240,240,164,162.6685,237.1485,39360,39360,38576.5967,tc,null,null,null,null,null,null,"[1,2]"
,canvas-keyboard-response,42,156961,0.0-6.0-0.6,61,,,,,pre trial waiting period,null,null,,,critical,d,c,t,232.8713,160.6713,164,240,240,164,trueblood,0.05,w,240,164,164,240,232.8713,160.6713,39360,39360,37415.7294,td,null,null,null,null,null,null,"[3,1]"
,canvas-keyboard-response,43,157121,0.0-6.0-1.6,61,,,,,clear_screen,null,null,,,critical,d,c,t,232.8713,160.6713,164,240,240,164,trueblood,0.05,w,240,164,164,240,232.8713,160.6713,39360,39360,37415.7294,td,null,null,null,null,null,null,"[3,1]"
,canvas-keyboard-response,44,158457,0.0-6.0-2.6,61,,,,,rectangles,null,null,,,critical,d,c,t,232.8713,160.6713,164,240,240,164,trueblood,0.05,w,240,164,164,240,232.8713,160.6713,39360,39360,37415.7294,td,null,null,null,null,null,null,"[3,1]"
,canvas-keyboard-response,45,158616,0.0-6.0-3.6,61,,,,,clear_screen,null,null,,,critical,d,c,t,232.8713,160.6713,164,240,240,164,trueblood,0.05,w,240,164,164,240,232.8713,160.6713,39360,39360,37415.7294,td,null,null,null,null,null,null,"[3,1]"
,canvas-keyboard-response,46,160836,0.0-6.0-4.6,61,,,,,make choice,2208,3,,,critical,d,c,t,232.8713,160.6713,164,240,240,164,trueblood,0.05,w,240,164,164,240,232.8713,160.6713,39360,39360,37415.7294,td,null,null,null,null,null,null,"[3,1]"
,canvas-keyboard-response,47,160996,0.0-6.0-5.6,61,,,,,clear_screen,null,null,,,critical,d,c,t,232.8713,160.6713,164,240,240,164,trueblood,0.05,w,240,164,164,240,232.8713,160.6713,39360,39360,37415.7294,td,null,null,null,null,null,null,"[3,1]"
,canvas-keyboard-response,48,161198,0.0-6.0-0.7,61,,,,,pre trial waiting period,null,null,,,critical,c,d,t,240,164,154.6796,220.0396,164,240,spektor,0.14,h,164,240,240,164,154.6796,220.0396,39360,39360,34035.6388,td,null,null,null,null,null,null,"[3,2]"
,canvas-keyboard-response,49,161360,0.0-6.0-1.7,61,,,,,clear_screen,null,null,,,critical,c,d,t,240,164,154.6796,220.0396,164,240,spektor,0.14,h,164,240,240,164,154.6796,220.0396,39360,39360,34035.6388,td,null,null,null,null,null,null,"[3,2]"
,canvas-keyboard-response,50,162696,0.0-6.0-2.7,61,,,,,rectangles,null,null,,,critical,c,d,t,240,164,154.6796,220.0396,164,240,spektor,0.14,h,164,240,240,164,154.6796,220.0396,39360,39360,34035.6388,td,null,null,null,null,null,null,"[3,2]"
,canvas-keyboard-response,51,162858,0.0-6.0-3.7,61,,,,,clear_screen,null,null,,,critical,c,d,t,240,164,154.6796,220.0396,164,240,spektor,0.14,h,164,240,240,164,154.6796,220.0396,39360,39360,34035.6388,td,null,null,null,null,null,null,"[3,2]"
,canvas-keyboard-response,52,164540,0.0-6.0-4.7,61,,,,,make choice,1672,3,,,critical,c,d,t,240,164,154.6796,220.0396,164,240,spektor,0.14,h,164,240,240,164,154.6796,220.0396,39360,39360,34035.6388,td,null,null,null,null,null,null,"[3,2]"
,canvas-keyboard-response,53,164699,0.0-6.0-5.7,61,,,,,clear_screen,null,null,,,critical,c,d,t,240,164,154.6796,220.0396,164,240,spektor,0.14,h,164,240,240,164,154.6796,220.0396,39360,39360,34035.6388,td,null,null,null,null,null,null,"[3,2]"
,canvas-keyboard-response,54,164901,0.0-6.0-0.8,61,,,,,pre trial waiting period,null,null,,,catch,sw,l,sh,180,200,285,173,167,189,trueblood,null,null,null,null,null,null,null,null,null,null,null,,180,200,260,200,36000,52000,"[1,2]"
,canvas-keyboard-response,55,165063,0.0-6.0-1.8,61,,,,,clear_screen,null,null,,,catch,sw,l,sh,180,200,285,173,167,189,trueblood,null,null,null,null,null,null,null,null,null,null,null,,180,200,260,200,36000,52000,"[1,2]"
,canvas-keyboard-response,56,166404,0.0-6.0-2.8,61,,,,,rectangles,null,null,,,catch,sw,l,sh,180,200,285,173,167,189,trueblood,null,null,null,null,null,null,null,null,null,null,null,,180,200,260,200,36000,52000,"[1,2]"
,canvas-keyboard-response,57,166564,0.0-6.0-3.8,61,,,,,clear_screen,null,null,,,catch,sw,l,sh,180,200,285,173,167,189,trueblood,null,null,null,null,null,null,null,null,null,null,null,,180,200,260,200,36000,52000,"[1,2]"
,canvas-keyboard-response,58,167764,0.0-6.0-4.8,61,,,,,make choice,1190,2,,,catch,sw,l,sh,180,200,285,173,167,189,trueblood,null,null,null,null,null,null,null,null,null,null,null,,180,200,260,200,36000,52000,"[1,2]"
,canvas-keyboard-response,59,167922,0.0-6.0-5.8,61,,,,,clear_screen,null,null,,,catch,sw,l,sh,180,200,285,173,167,189,trueblood,null,null,null,null,null,null,null,null,null,null,null,,180,200,260,200,36000,52000,"[1,2]"
,canvas-keyboard-response,60,168124,0.0-6.0-0.9,61,,,,,pre trial waiting period,null,null,,,critical,c,t,d,240,164,164,240,158.0083,227.1683,spektor,0.09,h,164,240,240,164,158.0083,227.1683,39360,39360,35894.4834,tc,null,null,null,null,null,null,"[2,1]"
,canvas-keyboard-response,61,168283,0.0-6.0-1.9,61,,,,,clear_screen,null,null,,,critical,c,t,d,240,164,164,240,158.0083,227.1683,spektor,0.09,h,164,240,240,164,158.0083,227.1683,39360,39360,35894.4834,tc,null,null,null,null,null,null,"[2,1]"
,canvas-keyboard-response,62,169622,0.0-6.0-2.9,61,,,,,rectangles,null,null,,,critical,c,t,d,240,164,164,240,158.0083,227.1683,spektor,0.09,h,164,240,240,164,158.0083,227.1683,39360,39360,35894.4834,tc,null,null,null,null,null,null,"[2,1]"
,canvas-keyboard-response,63,169784,0.0-6.0-3.9,61,,,,,clear_screen,null,null,,,critical,c,t,d,240,164,164,240,158.0083,227.1683,spektor,0.09,h,164,240,240,164,158.0083,227.1683,39360,39360,35894.4834,tc,null,null,null,null,null,null,"[2,1]"
,canvas-keyboard-response,64,171004,0.0-6.0-4.9,61,,,,,make choice,1211,2,,,critical,c,t,d,240,164,164,240,158.0083,227.1683,spektor,0.09,h,164,240,240,164,158.0083,227.1683,39360,39360,35894.4834,tc,null,null,null,null,null,null,"[2,1]"
,canvas-keyboard-response,65,171163,0.0-6.0-5.9,61,,,,,clear_screen,null,null,,,critical,c,t,d,240,164,164,240,158.0083,227.1683,spektor,0.09,h,164,240,240,164,158.0083,227.1683,39360,39360,35894.4834,tc,null,null,null,null,null,null,"[2,1]"
,canvas-keyboard-response,66,171365,0.0-6.0-0.10,61,,,,,pre trial waiting period,null,null,,,catch,sh,sw,l,238,160,219,192,269,183,spektor,null,null,null,null,null,null,null,null,null,null,null,,180,200,260,200,36000,52000,"[2,3]"
,canvas-keyboard-response,67,171529,0.0-6.0-1.10,61,,,,,clear_screen,null,null,,,catch,sh,sw,l,238,160,219,192,269,183,spektor,null,null,null,null,null,null,null,null,null,null,null,,180,200,260,200,36000,52000,"[2,3]"
,canvas-keyboard-response,68,172864,0.0-6.0-2.10,61,,,,,rectangles,null,null,,,catch,sh,sw,l,238,160,219,192,269,183,spektor,null,null,null,null,null,null,null,null,null,null,null,,180,200,260,200,36000,52000,"[2,3]"
,canvas-keyboard-response,69,173023,0.0-6.0-3.10,61,,,,,clear_screen,null,null,,,catch,sh,sw,l,238,160,219,192,269,183,spektor,null,null,null,null,null,null,null,null,null,null,null,,180,200,260,200,36000,52000,"[2,3]"
,canvas-keyboard-response,70,174173,0.0-6.0-4.10,61,,,,,make choice,1138,3,,,catch,sh,sw,l,238,160,219,192,269,183,spektor,null,null,null,null,null,null,null,null,null,null,null,,180,200,260,200,36000,52000,"[2,3]"
,canvas-keyboard-response,71,174335,0.0-6.0-5.10,61,,,,,clear_screen,null,null,,,catch,sh,sw,l,238,160,219,192,269,183,spektor,null,null,null,null,null,null,null,null,null,null,null,,180,200,260,200,36000,52000,"[2,3]"
,canvas-keyboard-response,72,174536,0.0-6.0-0.11,61,,,,,pre trial waiting period,null,null,,,catch,sh,sw,l,188,194,169,213,262,209,trueblood,null,null,null,null,null,null,null,null,null,null,null,,180,200,260,200,36000,52000,"[1,3]"
,canvas-keyboard-response,73,174695,0.0-6.0-1.11,61,,,,,clear_screen,null,null,,,catch,sh,sw,l,188,194,169,213,262,209,trueblood,null,null,null,null,null,null,null,null,null,null,null,,180,200,260,200,36000,52000,"[1,3]"
,canvas-keyboard-response,74,176032,0.0-6.0-2.11,61,,,,,rectangles,null,null,,,catch,sh,sw,l,188,194,169,213,262,209,trueblood,null,null,null,null,null,null,null,null,null,null,null,,180,200,260,200,36000,52000,"[1,3]"
,canvas-keyboard-response,75,176192,0.0-6.0-3.11,61,,,,,clear_screen,null,null,,,catch,sh,sw,l,188,194,169,213,262,209,trueblood,null,null,null,null,null,null,null,null,null,null,null,,180,200,260,200,36000,52000,"[1,3]"
,canvas-keyboard-response,76,177267,0.0-6.0-4.11,61,,,,,make choice,1065,3,,,catch,sh,sw,l,188,194,169,213,262,209,trueblood,null,null,null,null,null,null,null,null,null,null,null,,180,200,260,200,36000,52000,"[1,3]"
,canvas-keyboard-response,77,177429,0.0-6.0-5.11,61,,,,,clear_screen,null,null,,,catch,sh,sw,l,188,194,169,213,262,209,trueblood,null,null,null,null,null,null,null,null,null,null,null,,180,200,260,200,36000,52000,"[1,3]"
,canvas-keyboard-response,78,177631,0.0-6.0-0.12,61,,,,,pre trial waiting period,null,null,,,critical,c,t,d,164,240,240,164,232.8713,160.6713,spektor,0.05,w,240,164,164,240,232.8713,160.6713,39360,39360,37415.7294,tc,null,null,null,null,null,null,"[2,1]"
,canvas-keyboard-response,79,177791,0.0-6.0-1.12,61,,,,,clear_screen,null,null,,,critical,c,t,d,164,240,240,164,232.8713,160.6713,spektor,0.05,w,240,164,164,240,232.8713,160.6713,39360,39360,37415.7294,tc,null,null,null,null,null,null,"[2,1]"
,canvas-keyboard-response,80,179126,0.0-6.0-2.12,61,,,,,rectangles,null,null,,,critical,c,t,d,164,240,240,164,232.8713,160.6713,spektor,0.05,w,240,164,164,240,232.8713,160.6713,39360,39360,37415.7294,tc,null,null,null,null,null,null,"[2,1]"
,canvas-keyboard-response,81,179287,0.0-6.0-3.12,61,,,,,clear_screen,null,null,,,critical,c,t,d,164,240,240,164,232.8713,160.6713,spektor,0.05,w,240,164,164,240,232.8713,160.6713,39360,39360,37415.7294,tc,null,null,null,null,null,null,"[2,1]"
,canvas-keyboard-response,82,180708,0.0-6.0-4.12,61,,,,,make choice,1410,1,,,critical,c,t,d,164,240,240,164,232.8713,160.6713,spektor,0.05,w,240,164,164,240,232.8713,160.6713,39360,39360,37415.7294,tc,null,null,null,null,null,null,"[2,1]"
,canvas-keyboard-response,83,180867,0.0-6.0-5.12,61,,,,,clear_screen,null,null,,,critical,c,t,d,164,240,240,164,232.8713,160.6713,spektor,0.05,w,240,164,164,240,232.8713,160.6713,39360,39360,37415.7294,tc,null,null,null,null,null,null,"[2,1]"
,canvas-keyboard-response,84,181068,0.0-6.0-0.13,61,,,,,pre trial waiting period,null,null,,,catch,sh,l,sw,235,170,261,181,218,236,spektor,null,null,null,null,null,null,null,null,null,null,null,,180,200,260,200,36000,52000,"[1,2]"
,canvas-keyboard-response,85,181232,0.0-6.0-1.13,61,,,,,clear_screen,null,null,,,catch,sh,l,sw,235,170,261,181,218,236,spektor,null,null,null,null,null,null,null,null,null,null,null,,180,200,260,200,36000,52000,"[1,2]"
,canvas-keyboard-response,86,182572,0.0-6.0-2.13,61,,,,,rectangles,null,null,,,catch,sh,l,sw,235,170,261,181,218,236,spektor,null,null,null,null,null,null,null,null,null,null,null,,180,200,260,200,36000,52000,"[1,2]"
,canvas-keyboard-response,87,182731,0.0-6.0-3.13,61,,,,,clear_screen,null,null,,,catch,sh,l,sw,235,170,261,181,218,236,spektor,null,null,null,null,null,null,null,null,null,null,null,,180,200,260,200,36000,52000,"[1,2]"
,canvas-keyboard-response,88,183948,0.0-6.0-4.13,61,,,,,make choice,1208,2,,,catch,sh,l,sw,235,170,261,181,218,236,spektor,null,null,null,null,null,null,null,null,null,null,null,,180,200,260,200,36000,52000,"[1,2]"
,canvas-keyboard-response,89,184107,0.0-6.0-5.13,61,,,,,clear_screen,null,null,,,catch,sh,l,sw,235,170,261,181,218,236,spektor,null,null,null,null,null,null,null,null,null,null,null,,180,200,260,200,36000,52000,"[1,2]"
,canvas-keyboard-response,90,184308,0.0-6.0-0.14,61,,,,,pre trial waiting period,null,null,,,critical,t,d,c,240,164,240,164,164,240,trueblood,0,w,240,164,164,240,240,164,39360,39360,39360,td,null,null,null,null,null,null,"[1,2]"
,canvas-keyboard-response,91,184467,0.0-6.0-1.14,61,,,,,clear_screen,null,null,,,critical,t,d,c,240,164,240,164,164,240,trueblood,0,w,240,164,164,240,240,164,39360,39360,39360,td,null,null,null,null,null,null,"[1,2]"
,canvas-keyboard-response,92,185803,0.0-6.0-2.14,61,,,,,rectangles,null,null,,,critical,t,d,c,240,164,240,164,164,240,trueblood,0,w,240,164,164,240,240,164,39360,39360,39360,td,null,null,null,null,null,null,"[1,2]"
,canvas-keyboard-response,93,185965,0.0-6.0-3.14,61,,,,,clear_screen,null,null,,,critical,t,d,c,240,164,240,164,164,240,trueblood,0,w,240,164,164,240,240,164,39360,39360,39360,td,null,null,null,null,null,null,"[1,2]"
,canvas-keyboard-response,94,186756,0.0-6.0-4.14,61,,,,,make choice,782,2,,,critical,t,d,c,240,164,240,164,164,240,trueblood,0,w,240,164,164,240,240,164,39360,39360,39360,td,null,null,null,null,null,null,"[1,2]"
,canvas-keyboard-response,95,186918,0.0-6.0-5.14,61,,,,,clear_screen,null,null,,,critical,t,d,c,240,164,240,164,164,240,trueblood,0,w,240,164,164,240,240,164,39360,39360,39360,td,null,null,null,null,null,null,"[1,2]"
,canvas-keyboard-response,96,187119,0.0-6.0-0.15,61,,,,,pre trial waiting period,null,null,,,catch,sh,sw,l,221,190,182,192,233,206,spektor,null,null,null,null,null,null,null,null,null,null,null,,180,200,260,200,36000,52000,"[2,3]"
,canvas-keyboard-response,97,187281,0.0-6.0-1.15,61,,,,,clear_screen,null,null,,,catch,sh,sw,l,221,190,182,192,233,206,spektor,null,null,null,null,null,null,null,null,null,null,null,,180,200,260,200,36000,52000,"[2,3]"
,canvas-keyboard-response,98,188620,0.0-6.0-2.15,61,,,,,rectangles,null,null,,,catch,sh,sw,l,221,190,182,192,233,206,spektor,null,null,null,null,null,null,null,null,null,null,null,,180,200,260,200,36000,52000,"[2,3]"
,canvas-keyboard-response,99,188781,0.0-6.0-3.15,61,,,,,clear_screen,null,null,,,catch,sh,sw,l,221,190,182,192,233,206,spektor,null,null,null,null,null,null,null,null,null,null,null,,180,200,260,200,36000,52000,"[2,3]"
,canvas-keyboard-response,100,189524,0.0-6.0-4.15,61,,,,,make choice,730,3,,,catch,sh,sw,l,221,190,182,192,233,206,spektor,null,null,null,null,null,null,null,null,null,null,null,,180,200,260,200,36000,52000,"[2,3]"
,canvas-keyboard-response,101,189684,0.0-6.0-5.15,61,,,,,clear_screen,null,null,,,catch,sh,sw,l,221,190,182,192,233,206,spektor,null,null,null,null,null,null,null,null,null,null,null,,180,200,260,200,36000,52000,"[2,3]"
,canvas-keyboard-response,102,189886,0.0-6.0-0.16,61,,,,,pre trial waiting period,null,null,,,critical,c,t,d,240,164,164,240,164,240,spektor,0,h,164,240,240,164,164,240,39360,39360,39360,tc,null,null,null,null,null,null,"[2,1]"
,canvas-keyboard-response,103,190047,0.0-6.0-1.16,61,,,,,clear_screen,null,null,,,critical,c,t,d,240,164,164,240,164,240,spektor,0,h,164,240,240,164,164,240,39360,39360,39360,tc,null,null,null,null,null,null,"[2,1]"
,canvas-keyboard-response,104,191385,0.0-6.0-2.16,61,,,,,rectangles,null,null,,,critical,c,t,d,240,164,164,240,164,240,spektor,0,h,164,240,240,164,164,240,39360,39360,39360,tc,null,null,null,null,null,null,"[2,1]"
,canvas-keyboard-response,105,191548,0.0-6.0-3.16,61,,,,,clear_screen,null,null,,,critical,c,t,d,240,164,164,240,164,240,spektor,0,h,164,240,240,164,164,240,39360,39360,39360,tc,null,null,null,null,null,null,"[2,1]"
,canvas-keyboard-response,106,192651,0.0-6.0-4.16,61,,,,,make choice,1096,2,,,critical,c,t,d,240,164,164,240,164,240,spektor,0,h,164,240,240,164,164,240,39360,39360,39360,tc,null,null,null,null,null,null,"[2,1]"
,canvas-keyboard-response,107,192813,0.0-6.0-5.16,61,,,,,clear_screen,null,null,,,critical,c,t,d,240,164,164,240,164,240,spektor,0,h,164,240,240,164,164,240,39360,39360,39360,tc,null,null,null,null,null,null,"[2,1]"
,canvas-keyboard-response,108,193014,0.0-6.0-0.17,61,,,,,pre trial waiting period,null,null,,,critical,c,t,d,164,240,240,164,232.8713,160.6713,trueblood,0.05,w,240,164,164,240,232.8713,160.6713,39360,39360,37415.7294,tc,null,null,null,null,null,null,"[2,1]"
,canvas-keyboard-response,109,193177,0.0-6.0-1.17,61,,,,,clear_screen,null,null,,,critical,c,t,d,164,240,240,164,232.8713,160.6713,trueblood,0.05,w,240,164,164,240,232.8713,160.6713,39360,39360,37415.7294,tc,null,null,null,null,null,null,"[2,1]"
,canvas-keyboard-response,110,194512,0.0-6.0-2.17,61,,,,,rectangles,null,null,,,critical,c,t,d,164,240,240,164,232.8713,160.6713,trueblood,0.05,w,240,164,164,240,232.8713,160.6713,39360,39360,37415.7294,tc,null,null,null,null,null,null,"[2,1]"
,canvas-keyboard-response,111,194676,0.0-6.0-3.17,61,,,,,clear_screen,null,null,,,critical,c,t,d,164,240,240,164,232.8713,160.6713,trueblood,0.05,w,240,164,164,240,232.8713,160.6713,39360,39360,37415.7294,tc,null,null,null,null,null,null,"[2,1]"
,canvas-keyboard-response,112,196020,0.0-6.0-4.17,61,,,,,make choice,1332,1,,,critical,c,t,d,164,240,240,164,232.8713,160.6713,trueblood,0.05,w,240,164,164,240,232.8713,160.6713,39360,39360,37415.7294,tc,null,null,null,null,null,null,"[2,1]"
,canvas-keyboard-response,113,196181,0.0-6.0-5.17,61,,,,,clear_screen,null,null,,,critical,c,t,d,164,240,240,164,232.8713,160.6713,trueblood,0.05,w,240,164,164,240,232.8713,160.6713,39360,39360,37415.7294,tc,null,null,null,null,null,null,"[2,1]"
,canvas-keyboard-response,114,196382,0.0-6.0-0.18,61,,,,,pre trial waiting period,null,null,,,catch,sh,l,sw,188,202,195,285,153,195,trueblood,null,null,null,null,null,null,null,null,null,null,null,,180,200,260,200,36000,52000,"[2,3]"
,canvas-keyboard-response,115,196543,0.0-6.0-1.18,61,,,,,clear_screen,null,null,,,catch,sh,l,sw,188,202,195,285,153,195,trueblood,null,null,null,null,null,null,null,null,null,null,null,,180,200,260,200,36000,52000,"[2,3]"
,canvas-keyboard-response,116,197878,0.0-6.0-2.18,61,,,,,rectangles,null,null,,,catch,sh,l,sw,188,202,195,285,153,195,trueblood,null,null,null,null,null,null,null,null,null,null,null,,180,200,260,200,36000,52000,"[2,3]"
,canvas-keyboard-response,117,198038,0.0-6.0-3.18,61,,,,,clear_screen,null,null,,,catch,sh,l,sw,188,202,195,285,153,195,trueblood,null,null,null,null,null,null,null,null,null,null,null,,180,200,260,200,36000,52000,"[2,3]"
,canvas-keyboard-response,118,199756,0.0-6.0-4.18,61,,,,,make choice,1706,2,,,catch,sh,l,sw,188,202,195,285,153,195,trueblood,null,null,null,null,null,null,null,null,null,null,null,,180,200,260,200,36000,52000,"[2,3]"
,canvas-keyboard-response,119,199913,0.0-6.0-5.18,61,,,,,clear_screen,null,null,,,catch,sh,l,sw,188,202,195,285,153,195,trueblood,null,null,null,null,null,null,null,null,null,null,null,,180,200,260,200,36000,52000,"[2,3]"
,canvas-keyboard-response,120,200115,0.0-6.0-0.19,61,,,,,pre trial waiting period,null,null,,,critical,d,c,t,158.0083,227.1683,240,164,164,240,spektor,0.09,h,164,240,240,164,158.0083,227.1683,39360,39360,35894.4834,dc,null,null,null,null,null,null,"[1,2]"
,canvas-keyboard-response,121,200278,0.0-6.0-1.19,61,,,,,clear_screen,null,null,,,critical,d,c,t,158.0083,227.1683,240,164,164,240,spektor,0.09,h,164,240,240,164,158.0083,227.1683,39360,39360,35894.4834,dc,null,null,null,null,null,null,"[1,2]"
,canvas-keyboard-response,122,201614,0.0-6.0-2.19,61,,,,,rectangles,null,null,,,critical,d,c,t,158.0083,227.1683,240,164,164,240,spektor,0.09,h,164,240,240,164,158.0083,227.1683,39360,39360,35894.4834,dc,null,null,null,null,null,null,"[1,2]"
,canvas-keyboard-response,123,201777,0.0-6.0-3.19,61,,,,,clear_screen,null,null,,,critical,d,c,t,158.0083,227.1683,240,164,164,240,spektor,0.09,h,164,240,240,164,158.0083,227.1683,39360,39360,35894.4834,dc,null,null,null,null,null,null,"[1,2]"
,canvas-keyboard-response,124,205588,0.0-6.0-4.19,61,,,,,make choice,3802,2,,,critical,d,c,t,158.0083,227.1683,240,164,164,240,spektor,0.09,h,164,240,240,164,158.0083,227.1683,39360,39360,35894.4834,dc,null,null,null,null,null,null,"[1,2]"
,canvas-keyboard-response,125,205749,0.0-6.0-5.19,61,,,,,clear_screen,null,null,,,critical,d,c,t,158.0083,227.1683,240,164,164,240,spektor,0.09,h,164,240,240,164,158.0083,227.1683,39360,39360,35894.4834,dc,null,null,null,null,null,null,"[1,2]"
,canvas-keyboard-response,126,205950,0.0-6.0-0.20,61,,,,,pre trial waiting period,null,null,,,catch,sw,sh,l,180,200,177,148,252,183,trueblood,null,null,null,null,null,null,null,null,null,null,null,,180,200,260,200,36000,52000,"[2,3]"
,canvas-keyboard-response,127,206110,0.0-6.0-1.20,61,,,,,clear_screen,null,null,,,catch,sw,sh,l,180,200,177,148,252,183,trueblood,null,null,null,null,null,null,null,null,null,null,null,,180,200,260,200,36000,52000,"[2,3]"
,canvas-keyboard-response,128,207446,0.0-6.0-2.20,61,,,,,rectangles,null,null,,,catch,sw,sh,l,180,200,177,148,252,183,trueblood,null,null,null,null,null,null,null,null,null,null,null,,180,200,260,200,36000,52000,"[2,3]"
,canvas-keyboard-response,129,207606,0.0-6.0-3.20,61,,,,,clear_screen,null,null,,,catch,sw,sh,l,180,200,177,148,252,183,trueblood,null,null,null,null,null,null,null,null,null,null,null,,180,200,260,200,36000,52000,"[2,3]"
,canvas-keyboard-response,130,208741,0.0-6.0-4.20,61,,,,,make choice,1125,3,,,catch,sw,sh,l,180,200,177,148,252,183,trueblood,null,null,null,null,null,null,null,null,null,null,null,,180,200,260,200,36000,52000,"[2,3]"
,canvas-keyboard-response,131,208900,0.0-6.0-5.20,61,,,,,clear_screen,null,null,,,catch,sw,sh,l,180,200,177,148,252,183,trueblood,null,null,null,null,null,null,null,null,null,null,null,,180,200,260,200,36000,52000,"[2,3]"
,canvas-keyboard-response,132,209101,0.0-6.0-0.21,61,,,,,pre trial waiting period,null,null,,,catch,l,sh,sw,163,278,233,189,162,222,trueblood,null,null,null,null,null,null,null,null,null,null,null,,180,200,260,200,36000,52000,"[1,3]"
,canvas-keyboard-response,133,209264,0.0-6.0-1.21,61,,,,,clear_screen,null,null,,,catch,l,sh,sw,163,278,233,189,162,222,trueblood,null,null,null,null,null,null,null,null,null,null,null,,180,200,260,200,36000,52000,"[1,3]"
,canvas-keyboard-response,134,210601,0.0-6.0-2.21,61,,,,,rectangles,null,null,,,catch,l,sh,sw,163,278,233,189,162,222,trueblood,null,null,null,null,null,null,null,null,null,null,null,,180,200,260,200,36000,52000,"[1,3]"
,canvas-keyboard-response,135,210760,0.0-6.0-3.21,61,,,,,clear_screen,null,null,,,catch,l,sh,sw,163,278,233,189,162,222,trueblood,null,null,null,null,null,null,null,null,null,null,null,,180,200,260,200,36000,52000,"[1,3]"
,canvas-keyboard-response,136,212108,0.0-6.0-4.21,61,,,,,make choice,1338,1,,,catch,l,sh,sw,163,278,233,189,162,222,trueblood,null,null,null,null,null,null,null,null,null,null,null,,180,200,260,200,36000,52000,"[1,3]"
,canvas-keyboard-response,137,212267,0.0-6.0-5.21,61,,,,,clear_screen,null,null,,,catch,l,sh,sw,163,278,233,189,162,222,trueblood,null,null,null,null,null,null,null,null,null,null,null,,180,200,260,200,36000,52000,"[1,3]"
,canvas-keyboard-response,138,212468,0.0-6.0-0.22,61,,,,,pre trial waiting period,null,null,,,critical,t,c,d,240,164,164,240,237.1485,162.6685,spektor,0.02,w,240,164,164,240,237.1485,162.6685,39360,39360,38576.5967,dc,null,null,null,null,null,null,"[3,2]"
,canvas-keyboard-response,139,212629,0.0-6.0-1.22,61,,,,,clear_screen,null,null,,,critical,t,c,d,240,164,164,240,237.1485,162.6685,spektor,0.02,w,240,164,164,240,237.1485,162.6685,39360,39360,38576.5967,dc,null,null,null,null,null,null,"[3,2]"
,canvas-keyboard-response,140,213969,0.0-6.0-2.22,61,,,,,rectangles,null,null,,,critical,t,c,d,240,164,164,240,237.1485,162.6685,spektor,0.02,w,240,164,164,240,237.1485,162.6685,39360,39360,38576.5967,dc,null,null,null,null,null,null,"[3,2]"
,canvas-keyboard-response,141,214128,0.0-6.0-3.22,61,,,,,clear_screen,null,null,,,critical,t,c,d,240,164,164,240,237.1485,162.6685,spektor,0.02,w,240,164,164,240,237.1485,162.6685,39360,39360,38576.5967,dc,null,null,null,null,null,null,"[3,2]"
,canvas-keyboard-response,142,215252,0.0-6.0-4.22,61,,,,,make choice,1110,2,,,critical,t,c,d,240,164,164,240,237.1485,162.6685,spektor,0.02,w,240,164,164,240,237.1485,162.6685,39360,39360,38576.5967,dc,null,null,null,null,null,null,"[3,2]"
,canvas-keyboard-response,143,215411,0.0-6.0-5.22,61,,,,,clear_screen,null,null,,,critical,t,c,d,240,164,164,240,237.1485,162.6685,spektor,0.02,w,240,164,164,240,237.1485,162.6685,39360,39360,38576.5967,dc,null,null,null,null,null,null,"[3,2]"
,canvas-keyboard-response,144,215613,0.0-6.0-0.23,61,,,,,pre trial waiting period,null,null,,,critical,d,c,t,227.1683,158.0083,164,240,240,164,spektor,0.09,w,240,164,164,240,227.1683,158.0083,39360,39360,35894.4834,dc,null,null,null,null,null,null,"[1,2]"
,canvas-keyboard-response,145,215773,0.0-6.0-1.23,61,,,,,clear_screen,null,null,,,critical,d,c,t,227.1683,158.0083,164,240,240,164,spektor,0.09,w,240,164,164,240,227.1683,158.0083,39360,39360,35894.4834,dc,null,null,null,null,null,null,"[1,2]"
,canvas-keyboard-response,146,217112,0.0-6.0-2.23,61,,,,,rectangles,null,null,,,critical,d,c,t,227.1683,158.0083,164,240,240,164,spektor,0.09,w,240,164,164,240,227.1683,158.0083,39360,39360,35894.4834,dc,null,null,null,null,null,null,"[1,2]"
,canvas-keyboard-response,147,217274,0.0-6.0-3.23,61,,,,,clear_screen,null,null,,,critical,d,c,t,227.1683,158.0083,164,240,240,164,spektor,0.09,w,240,164,164,240,227.1683,158.0083,39360,39360,35894.4834,dc,null,null,null,null,null,null,"[1,2]"
,canvas-keyboard-response,148,217948,0.0-6.0-4.23,61,,,,,make choice,662,2,,,critical,d,c,t,227.1683,158.0083,164,240,240,164,spektor,0.09,w,240,164,164,240,227.1683,158.0083,39360,39360,35894.4834,dc,null,null,null,null,null,null,"[1,2]"
,canvas-keyboard-response,149,218111,0.0-6.0-5.23,61,,,,,clear_screen,null,null,,,critical,d,c,t,227.1683,158.0083,164,240,240,164,spektor,0.09,w,240,164,164,240,227.1683,158.0083,39360,39360,35894.4834,dc,null,null,null,null,null,null,"[1,2]"
,canvas-keyboard-response,150,218311,0.0-6.0-0.24,61,,,,,pre trial waiting period,null,null,,,critical,d,c,t,154.6796,220.0396,240,164,164,240,trueblood,0.14,h,164,240,240,164,154.6796,220.0396,39360,39360,34035.6388,tc,null,null,null,null,null,null,"[3,2]"
,canvas-keyboard-response,151,218472,0.0-6.0-1.24,61,,,,,clear_screen,null,null,,,critical,d,c,t,154.6796,220.0396,240,164,164,240,trueblood,0.14,h,164,240,240,164,154.6796,220.0396,39360,39360,34035.6388,tc,null,null,null,null,null,null,"[3,2]"
,canvas-keyboard-response,152,219811,0.0-6.0-2.24,61,,,,,rectangles,null,null,,,critical,d,c,t,154.6796,220.0396,240,164,164,240,trueblood,0.14,h,164,240,240,164,154.6796,220.0396,39360,39360,34035.6388,tc,null,null,null,null,null,null,"[3,2]"
,canvas-keyboard-response,153,219975,0.0-6.0-3.24,61,,,,,clear_screen,null,null,,,critical,d,c,t,154.6796,220.0396,240,164,164,240,trueblood,0.14,h,164,240,240,164,154.6796,220.0396,39360,39360,34035.6388,tc,null,null,null,null,null,null,"[3,2]"
,canvas-keyboard-response,154,221884,0.0-6.0-4.24,61,,,,,make choice,1894,3,,,critical,d,c,t,154.6796,220.0396,240,164,164,240,trueblood,0.14,h,164,240,240,164,154.6796,220.0396,39360,39360,34035.6388,tc,null,null,null,null,null,null,"[3,2]"
,canvas-keyboard-response,155,222043,0.0-6.0-5.24,61,,,,,clear_screen,null,null,,,critical,d,c,t,154.6796,220.0396,240,164,164,240,trueblood,0.14,h,164,240,240,164,154.6796,220.0396,39360,39360,34035.6388,tc,null,null,null,null,null,null,"[3,2]"
,canvas-keyboard-response,156,222244,0.0-6.0-0.25,61,,,,,pre trial waiting period,null,null,,,critical,c,d,t,164,240,220.0396,154.6796,240,164,trueblood,0.14,w,240,164,164,240,220.0396,154.6796,39360,39360,34035.6388,dc,null,null,null,null,null,null,"[2,1]"
,canvas-keyboard-response,157,222409,0.0-6.0-1.25,61,,,,,clear_screen,null,null,,,critical,c,d,t,164,240,220.0396,154.6796,240,164,trueblood,0.14,w,240,164,164,240,220.0396,154.6796,39360,39360,34035.6388,dc,null,null,null,null,null,null,"[2,1]"
,canvas-keyboard-response,158,223744,0.0-6.0-2.25,61,,,,,rectangles,null,null,,,critical,c,d,t,164,240,220.0396,154.6796,240,164,trueblood,0.14,w,240,164,164,240,220.0396,154.6796,39360,39360,34035.6388,dc,null,null,null,null,null,null,"[2,1]"
,canvas-keyboard-response,159,223907,0.0-6.0-3.25,61,,,,,clear_screen,null,null,,,critical,c,d,t,164,240,220.0396,154.6796,240,164,trueblood,0.14,w,240,164,164,240,220.0396,154.6796,39360,39360,34035.6388,dc,null,null,null,null,null,null,"[2,1]"
,canvas-keyboard-response,160,225148,0.0-6.0-4.25,61,,,,,make choice,1233,1,,,critical,c,d,t,164,240,220.0396,154.6796,240,164,trueblood,0.14,w,240,164,164,240,220.0396,154.6796,39360,39360,34035.6388,dc,null,null,null,null,null,null,"[2,1]"
,canvas-keyboard-response,161,225309,0.0-6.0-5.25,61,,,,,clear_screen,null,null,,,critical,c,d,t,164,240,220.0396,154.6796,240,164,trueblood,0.14,w,240,164,164,240,220.0396,154.6796,39360,39360,34035.6388,dc,null,null,null,null,null,null,"[2,1]"
,canvas-keyboard-response,162,225511,0.0-6.0-0.26,61,,,,,pre trial waiting period,null,null,,,catch,sh,sw,l,235,211,141,211,231,278,spektor,null,null,null,null,null,null,null,null,null,null,null,,180,200,260,200,36000,52000,"[2,3]"
,canvas-keyboard-response,163,225674,0.0-6.0-1.26,61,,,,,clear_screen,null,null,,,catch,sh,sw,l,235,211,141,211,231,278,spektor,null,null,null,null,null,null,null,null,null,null,null,,180,200,260,200,36000,52000,"[2,3]"
,canvas-keyboard-response,164,227011,0.0-6.0-2.26,61,,,,,rectangles,null,null,,,catch,sh,sw,l,235,211,141,211,231,278,spektor,null,null,null,null,null,null,null,null,null,null,null,,180,200,260,200,36000,52000,"[2,3]"
,canvas-keyboard-response,165,227170,0.0-6.0-3.26,61,,,,,clear_screen,null,null,,,catch,sh,sw,l,235,211,141,211,231,278,spektor,null,null,null,null,null,null,null,null,null,null,null,,180,200,260,200,36000,52000,"[2,3]"
,canvas-keyboard-response,166,228540,0.0-6.0-4.26,61,,,,,make choice,1361,3,,,catch,sh,sw,l,235,211,141,211,231,278,spektor,null,null,null,null,null,null,null,null,null,null,null,,180,200,260,200,36000,52000,"[2,3]"
,canvas-keyboard-response,167,228702,0.0-6.0-5.26,61,,,,,clear_screen,null,null,,,catch,sh,sw,l,235,211,141,211,231,278,spektor,null,null,null,null,null,null,null,null,null,null,null,,180,200,260,200,36000,52000,"[2,3]"
,canvas-keyboard-response,168,228904,0.0-6.0-0.27,61,,,,,pre trial waiting period,null,null,,,critical,c,t,d,240,164,164,240,164,240,trueblood,0,h,164,240,240,164,164,240,39360,39360,39360,td,null,null,null,null,null,null,"[2,3]"
,canvas-keyboard-response,169,229064,0.0-6.0-1.27,61,,,,,clear_screen,null,null,,,critical,c,t,d,240,164,164,240,164,240,trueblood,0,h,164,240,240,164,164,240,39360,39360,39360,td,null,null,null,null,null,null,"[2,3]"
,canvas-keyboard-response,170,230402,0.0-6.0-2.27,61,,,,,rectangles,null,null,,,critical,c,t,d,240,164,164,240,164,240,trueblood,0,h,164,240,240,164,164,240,39360,39360,39360,td,null,null,null,null,null,null,"[2,3]"
,canvas-keyboard-response,171,230565,0.0-6.0-3.27,61,,,,,clear_screen,null,null,,,critical,c,t,d,240,164,164,240,164,240,trueblood,0,h,164,240,240,164,164,240,39360,39360,39360,td,null,null,null,null,null,null,"[2,3]"
,canvas-keyboard-response,172,231964,0.0-6.0-4.27,61,,,,,make choice,1387,2,,,critical,c,t,d,240,164,164,240,164,240,trueblood,0,h,164,240,240,164,164,240,39360,39360,39360,td,null,null,null,null,null,null,"[2,3]"
,canvas-keyboard-response,173,232123,0.0-6.0-5.27,61,,,,,clear_screen,null,null,,,critical,c,t,d,240,164,164,240,164,240,trueblood,0,h,164,240,240,164,164,240,39360,39360,39360,td,null,null,null,null,null,null,"[2,3]"
,canvas-keyboard-response,174,232325,0.0-6.0-0.28,61,,,,,pre trial waiting period,null,null,,,critical,c,t,d,164,240,240,164,237.1485,162.6685,spektor,0.02,w,240,164,164,240,237.1485,162.6685,39360,39360,38576.5967,tc,null,null,null,null,null,null,"[2,1]"
,canvas-keyboard-response,175,232485,0.0-6.0-1.28,61,,,,,clear_screen,null,null,,,critical,c,t,d,164,240,240,164,237.1485,162.6685,spektor,0.02,w,240,164,164,240,237.1485,162.6685,39360,39360,38576.5967,tc,null,null,null,null,null,null,"[2,1]"
,canvas-keyboard-response,176,233823,0.0-6.0-2.28,61,,,,,rectangles,null,null,,,critical,c,t,d,164,240,240,164,237.1485,162.6685,spektor,0.02,w,240,164,164,240,237.1485,162.6685,39360,39360,38576.5967,tc,null,null,null,null,null,null,"[2,1]"
,canvas-keyboard-response,177,233986,0.0-6.0-3.28,61,,,,,clear_screen,null,null,,,critical,c,t,d,164,240,240,164,237.1485,162.6685,spektor,0.02,w,240,164,164,240,237.1485,162.6685,39360,39360,38576.5967,tc,null,null,null,null,null,null,"[2,1]"
,canvas-keyboard-response,178,234834,0.0-6.0-4.28,61,,,,,make choice,836,1,,,critical,c,t,d,164,240,240,164,237.1485,162.6685,spektor,0.02,w,240,164,164,240,237.1485,162.6685,39360,39360,38576.5967,tc,null,null,null,null,null,null,"[2,1]"
,canvas-keyboard-response,179,234989,0.0-6.0-5.28,61,,,,,clear_screen,null,null,,,critical,c,t,d,164,240,240,164,237.1485,162.6685,spektor,0.02,w,240,164,164,240,237.1485,162.6685,39360,39360,38576.5967,tc,null,null,null,null,null,null,"[2,1]"
,canvas-keyboard-response,180,235191,0.0-6.0-0.29,61,,,,,pre trial waiting period,null,null,,,catch,sh,l,sw,236,186,220,178,149,188,spektor,null,null,null,null,null,null,null,null,null,null,null,,180,200,260,200,36000,52000,"[2,3]"
,canvas-keyboard-response,181,235354,0.0-6.0-1.29,61,,,,,clear_screen,null,null,,,catch,sh,l,sw,236,186,220,178,149,188,spektor,null,null,null,null,null,null,null,null,null,null,null,,180,200,260,200,36000,52000,"[2,3]"
,canvas-keyboard-response,182,236690,0.0-6.0-2.29,61,,,,,rectangles,null,null,,,catch,sh,l,sw,236,186,220,178,149,188,spektor,null,null,null,null,null,null,null,null,null,null,null,,180,200,260,200,36000,52000,"[2,3]"
,canvas-keyboard-response,183,236853,0.0-6.0-3.29,61,,,,,clear_screen,null,null,,,catch,sh,l,sw,236,186,220,178,149,188,spektor,null,null,null,null,null,null,null,null,null,null,null,,180,200,260,200,36000,52000,"[2,3]"
,canvas-keyboard-response,184,238677,0.0-6.0-4.29,61,,,,,make choice,1815,2,,,catch,sh,l,sw,236,186,220,178,149,188,spektor,null,null,null,null,null,null,null,null,null,null,null,,180,200,260,200,36000,52000,"[2,3]"
,canvas-keyboard-response,185,238837,0.0-6.0-5.29,61,,,,,clear_screen,null,null,,,catch,sh,l,sw,236,186,220,178,149,188,spektor,null,null,null,null,null,null,null,null,null,null,null,,180,200,260,200,36000,52000,"[2,3]"
,canvas-keyboard-response,186,239039,0.0-6.0-0.30,61,,,,,pre trial waiting period,null,null,,,catch,sw,sh,l,180,200,178,172,257,193,trueblood,null,null,null,null,null,null,null,null,null,null,null,,180,200,260,200,36000,52000,"[1,3]"
,canvas-keyboard-response,187,239203,0.0-6.0-1.30,61,,,,,clear_screen,null,null,,,catch,sw,sh,l,180,200,178,172,257,193,trueblood,null,null,null,null,null,null,null,null,null,null,null,,180,200,260,200,36000,52000,"[1,3]"
,canvas-keyboard-response,188,240539,0.0-6.0-2.30,61,,,,,rectangles,null,null,,,catch,sw,sh,l,180,200,178,172,257,193,trueblood,null,null,null,null,null,null,null,null,null,null,null,,180,200,260,200,36000,52000,"[1,3]"
,canvas-keyboard-response,189,240703,0.0-6.0-3.30,61,,,,,clear_screen,null,null,,,catch,sw,sh,l,180,200,178,172,257,193,trueblood,null,null,null,null,null,null,null,null,null,null,null,,180,200,260,200,36000,52000,"[1,3]"
,canvas-keyboard-response,190,242395,0.0-6.0-4.30,61,,,,,make choice,1682,3,,,catch,sw,sh,l,180,200,178,172,257,193,trueblood,null,null,null,null,null,null,null,null,null,null,null,,180,200,260,200,36000,52000,"[1,3]"
,canvas-keyboard-response,191,242555,0.0-6.0-5.30,61,,,,,clear_screen,null,null,,,catch,sw,sh,l,180,200,178,172,257,193,trueblood,null,null,null,null,null,null,null,null,null,null,null,,180,200,260,200,36000,52000,"[1,3]"
,canvas-keyboard-response,192,242756,0.0-6.0-0.31,61,,,,,pre trial waiting period,null,null,,,catch,sw,sh,l,180,200,185,146,184,273,trueblood,null,null,null,null,null,null,null,null,null,null,null,,180,200,260,200,36000,52000,"[2,3]"
,canvas-keyboard-response,193,242916,0.0-6.0-1.31,61,,,,,clear_screen,null,null,,,catch,sw,sh,l,180,200,185,146,184,273,trueblood,null,null,null,null,null,null,null,null,null,null,null,,180,200,260,200,36000,52000,"[2,3]"
,canvas-keyboard-response,194,244252,0.0-6.0-2.31,61,,,,,rectangles,null,null,,,catch,sw,sh,l,180,200,185,146,184,273,trueblood,null,null,null,null,null,null,null,null,null,null,null,,180,200,260,200,36000,52000,"[2,3]"
,canvas-keyboard-response,195,244410,0.0-6.0-3.31,61,,,,,clear_screen,null,null,,,catch,sw,sh,l,180,200,185,146,184,273,trueblood,null,null,null,null,null,null,null,null,null,null,null,,180,200,260,200,36000,52000,"[2,3]"
,canvas-keyboard-response,196,245453,0.0-6.0-4.31,61,,,,,make choice,1032,3,,,catch,sw,sh,l,180,200,185,146,184,273,trueblood,null,null,null,null,null,null,null,null,null,null,null,,180,200,260,200,36000,52000,"[2,3]"
,canvas-keyboard-response,197,245610,0.0-6.0-5.31,61,,,,,clear_screen,null,null,,,catch,sw,sh,l,180,200,185,146,184,273,trueblood,null,null,null,null,null,null,null,null,null,null,null,,180,200,260,200,36000,52000,"[2,3]"
,canvas-keyboard-response,198,245811,0.0-6.0-0.32,61,,,,,pre trial waiting period,null,null,,,critical,t,d,c,240,164,227.1683,158.0083,164,240,spektor,0.09,w,240,164,164,240,227.1683,158.0083,39360,39360,35894.4834,tc,null,null,null,null,null,null,"[1,3]"
,canvas-keyboard-response,199,245974,0.0-6.0-1.32,61,,,,,clear_screen,null,null,,,critical,t,d,c,240,164,227.1683,158.0083,164,240,spektor,0.09,w,240,164,164,240,227.1683,158.0083,39360,39360,35894.4834,tc,null,null,null,null,null,null,"[1,3]"
,canvas-keyboard-response,200,247312,0.0-6.0-2.32,61,,,,,rectangles,null,null,,,critical,t,d,c,240,164,227.1683,158.0083,164,240,spektor,0.09,w,240,164,164,240,227.1683,158.0083,39360,39360,35894.4834,tc,null,null,null,null,null,null,"[1,3]"
,canvas-keyboard-response,201,247475,0.0-6.0-3.32,61,,,,,clear_screen,null,null,,,critical,t,d,c,240,164,227.1683,158.0083,164,240,spektor,0.09,w,240,164,164,240,227.1683,158.0083,39360,39360,35894.4834,tc,null,null,null,null,null,null,"[1,3]"
,canvas-keyboard-response,202,248341,0.0-6.0-4.32,61,,,,,make choice,854,3,,,critical,t,d,c,240,164,227.1683,158.0083,164,240,spektor,0.09,w,240,164,164,240,227.1683,158.0083,39360,39360,35894.4834,tc,null,null,null,null,null,null,"[1,3]"
,canvas-keyboard-response,203,248499,0.0-6.0-5.32,61,,,,,clear_screen,null,null,,,critical,t,d,c,240,164,227.1683,158.0083,164,240,spektor,0.09,w,240,164,164,240,227.1683,158.0083,39360,39360,35894.4834,tc,null,null,null,null,null,null,"[1,3]"
,canvas-keyboard-response,204,248700,0.0-6.0-0.33,61,,,,,pre trial waiting period,null,null,,,critical,d,c,t,158.0083,227.1683,240,164,164,240,spektor,0.09,h,164,240,240,164,158.0083,227.1683,39360,39360,35894.4834,td,null,null,null,null,null,null,"[3,1]"
,canvas-keyboard-response,205,248861,0.0-6.0-1.33,61,,,,,clear_screen,null,null,,,critical,d,c,t,158.0083,227.1683,240,164,164,240,spektor,0.09,h,164,240,240,164,158.0083,227.1683,39360,39360,35894.4834,td,null,null,null,null,null,null,"[3,1]"
,canvas-keyboard-response,206,250197,0.0-6.0-2.33,61,,,,,rectangles,null,null,,,critical,d,c,t,158.0083,227.1683,240,164,164,240,spektor,0.09,h,164,240,240,164,158.0083,227.1683,39360,39360,35894.4834,td,null,null,null,null,null,null,"[3,1]"
,canvas-keyboard-response,207,250356,0.0-6.0-3.33,61,,,,,clear_screen,null,null,,,critical,d,c,t,158.0083,227.1683,240,164,164,240,spektor,0.09,h,164,240,240,164,158.0083,227.1683,39360,39360,35894.4834,td,null,null,null,null,null,null,"[3,1]"
,canvas-keyboard-response,208,251173,0.0-6.0-4.33,61,,,,,make choice,807,3,,,critical,d,c,t,158.0083,227.1683,240,164,164,240,spektor,0.09,h,164,240,240,164,158.0083,227.1683,39360,39360,35894.4834,td,null,null,null,null,null,null,"[3,1]"
,canvas-keyboard-response,209,251332,0.0-6.0-5.33,61,,,,,clear_screen,null,null,,,critical,d,c,t,158.0083,227.1683,240,164,164,240,spektor,0.09,h,164,240,240,164,158.0083,227.1683,39360,39360,35894.4834,td,null,null,null,null,null,null,"[3,1]"
,canvas-keyboard-response,210,251533,0.0-6.0-0.34,61,,,,,pre trial waiting period,null,null,,,critical,t,d,c,164,240,158.0083,227.1683,240,164,trueblood,0.09,h,164,240,240,164,158.0083,227.1683,39360,39360,35894.4834,tc,null,null,null,null,null,null,"[1,3]"
,canvas-keyboard-response,211,251696,0.0-6.0-1.34,61,,,,,clear_screen,null,null,,,critical,t,d,c,164,240,158.0083,227.1683,240,164,trueblood,0.09,h,164,240,240,164,158.0083,227.1683,39360,39360,35894.4834,tc,null,null,null,null,null,null,"[1,3]"
,canvas-keyboard-response,212,253035,0.0-6.0-2.34,61,,,,,rectangles,null,null,,,critical,t,d,c,164,240,158.0083,227.1683,240,164,trueblood,0.09,h,164,240,240,164,158.0083,227.1683,39360,39360,35894.4834,tc,null,null,null,null,null,null,"[1,3]"
,canvas-keyboard-response,213,253196,0.0-6.0-3.34,61,,,,,clear_screen,null,null,,,critical,t,d,c,164,240,158.0083,227.1683,240,164,trueblood,0.09,h,164,240,240,164,158.0083,227.1683,39360,39360,35894.4834,tc,null,null,null,null,null,null,"[1,3]"
,canvas-keyboard-response,214,257076,0.0-6.0-4.34,61,,,,,make choice,3871,3,,,critical,t,d,c,164,240,158.0083,227.1683,240,164,trueblood,0.09,h,164,240,240,164,158.0083,227.1683,39360,39360,35894.4834,tc,null,null,null,null,null,null,"[1,3]"
,canvas-keyboard-response,215,257237,0.0-6.0-5.34,61,,,,,clear_screen,null,null,,,critical,t,d,c,164,240,158.0083,227.1683,240,164,trueblood,0.09,h,164,240,240,164,158.0083,227.1683,39360,39360,35894.4834,tc,null,null,null,null,null,null,"[1,3]"
,canvas-keyboard-response,216,257438,0.0-6.0-0.35,61,,,,,pre trial waiting period,null,null,,,critical,t,d,c,164,240,164,240,240,164,trueblood,0,h,164,240,240,164,164,240,39360,39360,39360,tc,null,null,null,null,null,null,"[1,3]"
,canvas-keyboard-response,217,257602,0.0-6.0-1.35,61,,,,,clear_screen,null,null,,,critical,t,d,c,164,240,164,240,240,164,trueblood,0,h,164,240,240,164,164,240,39360,39360,39360,tc,null,null,null,null,null,null,"[1,3]"
,canvas-keyboard-response,218,258941,0.0-6.0-2.35,61,,,,,rectangles,null,null,,,critical,t,d,c,164,240,164,240,240,164,trueblood,0,h,164,240,240,164,164,240,39360,39360,39360,tc,null,null,null,null,null,null,"[1,3]"
,canvas-keyboard-response,219,259099,0.0-6.0-3.35,61,,,,,clear_screen,null,null,,,critical,t,d,c,164,240,164,240,240,164,trueblood,0,h,164,240,240,164,164,240,39360,39360,39360,tc,null,null,null,null,null,null,"[1,3]"
,canvas-keyboard-response,220,261245,0.0-6.0-4.35,61,,,,,make choice,2134,3,,,critical,t,d,c,164,240,164,240,240,164,trueblood,0,h,164,240,240,164,164,240,39360,39360,39360,tc,null,null,null,null,null,null,"[1,3]"
,canvas-keyboard-response,221,261405,0.0-6.0-5.35,61,,,,,clear_screen,null,null,,,critical,t,d,c,164,240,164,240,240,164,trueblood,0,h,164,240,240,164,164,240,39360,39360,39360,tc,null,null,null,null,null,null,"[1,3]"
,canvas-keyboard-response,222,261606,0.0-6.0-0.36,61,,,,,pre trial waiting period,null,null,,,critical,t,c,d,240,164,164,240,237.1485,162.6685,trueblood,0.02,w,240,164,164,240,237.1485,162.6685,39360,39360,38576.5967,dc,null,null,null,null,null,null,"[3,2]"
,canvas-keyboard-response,223,261766,0.0-6.0-1.36,61,,,,,clear_screen,null,null,,,critical,t,c,d,240,164,164,240,237.1485,162.6685,trueblood,0.02,w,240,164,164,240,237.1485,162.6685,39360,39360,38576.5967,dc,null,null,null,null,null,null,"[3,2]"
,canvas-keyboard-response,224,263101,0.0-6.0-2.36,61,,,,,rectangles,null,null,,,critical,t,c,d,240,164,164,240,237.1485,162.6685,trueblood,0.02,w,240,164,164,240,237.1485,162.6685,39360,39360,38576.5967,dc,null,null,null,null,null,null,"[3,2]"
,canvas-keyboard-response,225,263262,0.0-6.0-3.36,61,,,,,clear_screen,null,null,,,critical,t,c,d,240,164,164,240,237.1485,162.6685,trueblood,0.02,w,240,164,164,240,237.1485,162.6685,39360,39360,38576.5967,dc,null,null,null,null,null,null,"[3,2]"
,canvas-keyboard-response,226,264804,0.0-6.0-4.36,61,,,,,make choice,1534,2,,,critical,t,c,d,240,164,164,240,237.1485,162.6685,trueblood,0.02,w,240,164,164,240,237.1485,162.6685,39360,39360,38576.5967,dc,null,null,null,null,null,null,"[3,2]"
,canvas-keyboard-response,227,264963,0.0-6.0-5.36,61,,,,,clear_screen,null,null,,,critical,t,c,d,240,164,164,240,237.1485,162.6685,trueblood,0.02,w,240,164,164,240,237.1485,162.6685,39360,39360,38576.5967,dc,null,null,null,null,null,null,"[3,2]"
,canvas-keyboard-response,228,265164,0.0-6.0-0.37,61,,,,,pre trial waiting period,null,null,,,critical,t,c,d,164,240,240,164,162.6685,237.1485,spektor,0.02,h,164,240,240,164,162.6685,237.1485,39360,39360,38576.5967,td,null,null,null,null,null,null,"[1,3]"
,canvas-keyboard-response,229,265324,0.0-6.0-1.37,61,,,,,clear_screen,null,null,,,critical,t,c,d,164,240,240,164,162.6685,237.1485,spektor,0.02,h,164,240,240,164,162.6685,237.1485,39360,39360,38576.5967,td,null,null,null,null,null,null,"[1,3]"
,canvas-keyboard-response,230,266659,0.0-6.0-2.37,61,,,,,rectangles,null,null,,,critical,t,c,d,164,240,240,164,162.6685,237.1485,spektor,0.02,h,164,240,240,164,162.6685,237.1485,39360,39360,38576.5967,td,null,null,null,null,null,null,"[1,3]"
,canvas-keyboard-response,231,266818,0.0-6.0-3.37,61,,,,,clear_screen,null,null,,,critical,t,c,d,164,240,240,164,162.6685,237.1485,spektor,0.02,h,164,240,240,164,162.6685,237.1485,39360,39360,38576.5967,td,null,null,null,null,null,null,"[1,3]"
,canvas-keyboard-response,232,270420,0.0-6.0-4.37,61,,,,,make choice,3592,3,,,critical,t,c,d,164,240,240,164,162.6685,237.1485,spektor,0.02,h,164,240,240,164,162.6685,237.1485,39360,39360,38576.5967,td,null,null,null,null,null,null,"[1,3]"
,canvas-keyboard-response,233,270580,0.0-6.0-5.37,61,,,,,clear_screen,null,null,,,critical,t,c,d,164,240,240,164,162.6685,237.1485,spektor,0.02,h,164,240,240,164,162.6685,237.1485,39360,39360,38576.5967,td,null,null,null,null,null,null,"[1,3]"
,canvas-keyboard-response,234,270781,0.0-6.0-0.38,61,,,,,pre trial waiting period,null,null,,,catch,l,sw,sh,179,238,185,190,221,163,trueblood,null,null,null,null,null,null,null,null,null,null,null,,180,200,260,200,36000,52000,"[1,2]"
,canvas-keyboard-response,235,270943,0.0-6.0-1.38,61,,,,,clear_screen,null,null,,,catch,l,sw,sh,179,238,185,190,221,163,trueblood,null,null,null,null,null,null,null,null,null,null,null,,180,200,260,200,36000,52000,"[1,2]"
,canvas-keyboard-response,236,272279,0.0-6.0-2.38,61,,,,,rectangles,null,null,,,catch,l,sw,sh,179,238,185,190,221,163,trueblood,null,null,null,null,null,null,null,null,null,null,null,,180,200,260,200,36000,52000,"[1,2]"
,canvas-keyboard-response,237,272438,0.0-6.0-3.38,61,,,,,clear_screen,null,null,,,catch,l,sw,sh,179,238,185,190,221,163,trueblood,null,null,null,null,null,null,null,null,null,null,null,,180,200,260,200,36000,52000,"[1,2]"
,canvas-keyboard-response,238,275612,0.0-6.0-4.38,61,,,,,make choice,3163,1,,,catch,l,sw,sh,179,238,185,190,221,163,trueblood,null,null,null,null,null,null,null,null,null,null,null,,180,200,260,200,36000,52000,"[1,2]"
,canvas-keyboard-response,239,275772,0.0-6.0-5.38,61,,,,,clear_screen,null,null,,,catch,l,sw,sh,179,238,185,190,221,163,trueblood,null,null,null,null,null,null,null,null,null,null,null,,180,200,260,200,36000,52000,"[1,2]"
,canvas-keyboard-response,240,275974,0.0-6.0-0.39,61,,,,,pre trial waiting period,null,null,,,critical,d,c,t,232.8713,160.6713,164,240,240,164,spektor,0.05,w,240,164,164,240,232.8713,160.6713,39360,39360,37415.7294,dc,null,null,null,null,null,null,"[1,2]"
,canvas-keyboard-response,241,276135,0.0-6.0-1.39,61,,,,,clear_screen,null,null,,,critical,d,c,t,232.8713,160.6713,164,240,240,164,spektor,0.05,w,240,164,164,240,232.8713,160.6713,39360,39360,37415.7294,dc,null,null,null,null,null,null,"[1,2]"
,canvas-keyboard-response,242,277470,0.0-6.0-2.39,61,,,,,rectangles,null,null,,,critical,d,c,t,232.8713,160.6713,164,240,240,164,spektor,0.05,w,240,164,164,240,232.8713,160.6713,39360,39360,37415.7294,dc,null,null,null,null,null,null,"[1,2]"
,canvas-keyboard-response,243,277629,0.0-6.0-3.39,61,,,,,clear_screen,null,null,,,critical,d,c,t,232.8713,160.6713,164,240,240,164,spektor,0.05,w,240,164,164,240,232.8713,160.6713,39360,39360,37415.7294,dc,null,null,null,null,null,null,"[1,2]"
,canvas-keyboard-response,244,279068,0.0-6.0-4.39,61,,,,,make choice,1427,2,,,critical,d,c,t,232.8713,160.6713,164,240,240,164,spektor,0.05,w,240,164,164,240,232.8713,160.6713,39360,39360,37415.7294,dc,null,null,null,null,null,null,"[1,2]"
,canvas-keyboard-response,245,279227,0.0-6.0-5.39,61,,,,,clear_screen,null,null,,,critical,d,c,t,232.8713,160.6713,164,240,240,164,spektor,0.05,w,240,164,164,240,232.8713,160.6713,39360,39360,37415.7294,dc,null,null,null,null,null,null,"[1,2]"
,canvas-keyboard-response,246,279429,0.0-6.0-0.40,61,,,,,pre trial waiting period,null,null,,,catch,l,sh,sw,270,162,168,147,177,204,spektor,null,null,null,null,null,null,null,null,null,null,null,,180,200,260,200,36000,52000,"[1,2]"
,canvas-keyboard-response,247,279592,0.0-6.0-1.40,61,,,,,clear_screen,null,null,,,catch,l,sh,sw,270,162,168,147,177,204,spektor,null,null,null,null,null,null,null,null,null,null,null,,180,200,260,200,36000,52000,"[1,2]"
,canvas-keyboard-response,248,280927,0.0-6.0-2.40,61,,,,,rectangles,null,null,,,catch,l,sh,sw,270,162,168,147,177,204,spektor,null,null,null,null,null,null,null,null,null,null,null,,180,200,260,200,36000,52000,"[1,2]"
,canvas-keyboard-response,249,281090,0.0-6.0-3.40,61,,,,,clear_screen,null,null,,,catch,l,sh,sw,270,162,168,147,177,204,spektor,null,null,null,null,null,null,null,null,null,null,null,,180,200,260,200,36000,52000,"[1,2]"
,canvas-keyboard-response,250,282051,0.0-6.0-4.40,61,,,,,make choice,950,1,,,catch,l,sh,sw,270,162,168,147,177,204,spektor,null,null,null,null,null,null,null,null,null,null,null,,180,200,260,200,36000,52000,"[1,2]"
,canvas-keyboard-response,251,282210,0.0-6.0-5.40,61,,,,,clear_screen,null,null,,,catch,l,sh,sw,270,162,168,147,177,204,spektor,null,null,null,null,null,null,null,null,null,null,null,,180,200,260,200,36000,52000,"[1,2]"
,canvas-keyboard-response,252,282412,0.0-6.0-0.41,61,,,,,pre trial waiting period,null,null,,,critical,c,d,t,240,164,160.6713,232.8713,164,240,spektor,0.05,h,164,240,240,164,160.6713,232.8713,39360,39360,37415.7294,td,null,null,null,null,null,null,"[3,2]"
,canvas-keyboard-response,253,282576,0.0-6.0-1.41,61,,,,,clear_screen,null,null,,,critical,c,d,t,240,164,160.6713,232.8713,164,240,spektor,0.05,h,164,240,240,164,160.6713,232.8713,39360,39360,37415.7294,td,null,null,null,null,null,null,"[3,2]"
,canvas-keyboard-response,254,283912,0.0-6.0-2.41,61,,,,,rectangles,null,null,,,critical,c,d,t,240,164,160.6713,232.8713,164,240,spektor,0.05,h,164,240,240,164,160.6713,232.8713,39360,39360,37415.7294,td,null,null,null,null,null,null,"[3,2]"
,canvas-keyboard-response,255,284074,0.0-6.0-3.41,61,,,,,clear_screen,null,null,,,critical,c,d,t,240,164,160.6713,232.8713,164,240,spektor,0.05,h,164,240,240,164,160.6713,232.8713,39360,39360,37415.7294,td,null,null,null,null,null,null,"[3,2]"
,canvas-keyboard-response,256,285340,0.0-6.0-4.41,61,,,,,make choice,1255,3,,,critical,c,d,t,240,164,160.6713,232.8713,164,240,spektor,0.05,h,164,240,240,164,160.6713,232.8713,39360,39360,37415.7294,td,null,null,null,null,null,null,"[3,2]"
,canvas-keyboard-response,257,285498,0.0-6.0-5.41,61,,,,,clear_screen,null,null,,,critical,c,d,t,240,164,160.6713,232.8713,164,240,spektor,0.05,h,164,240,240,164,160.6713,232.8713,39360,39360,37415.7294,td,null,null,null,null,null,null,"[3,2]"
,canvas-keyboard-response,258,285700,0.0-6.0-0.42,61,,,,,pre trial waiting period,null,null,,,critical,t,d,c,164,240,158.0083,227.1683,240,164,trueblood,0.09,h,164,240,240,164,158.0083,227.1683,39360,39360,35894.4834,td,null,null,null,null,null,null,"[1,2]"
,canvas-keyboard-response,259,285862,0.0-6.0-1.42,61,,,,,clear_screen,null,null,,,critical,t,d,c,164,240,158.0083,227.1683,240,164,trueblood,0.09,h,164,240,240,164,158.0083,227.1683,39360,39360,35894.4834,td,null,null,null,null,null,null,"[1,2]"
,canvas-keyboard-response,260,287198,0.0-6.0-2.42,61,,,,,rectangles,null,null,,,critical,t,d,c,164,240,158.0083,227.1683,240,164,trueblood,0.09,h,164,240,240,164,158.0083,227.1683,39360,39360,35894.4834,td,null,null,null,null,null,null,"[1,2]"
,canvas-keyboard-response,261,287359,0.0-6.0-3.42,61,,,,,clear_screen,null,null,,,critical,t,d,c,164,240,158.0083,227.1683,240,164,trueblood,0.09,h,164,240,240,164,158.0083,227.1683,39360,39360,35894.4834,td,null,null,null,null,null,null,"[1,2]"
,canvas-keyboard-response,262,288589,0.0-6.0-4.42,61,,,,,make choice,1216,1,,,critical,t,d,c,164,240,158.0083,227.1683,240,164,trueblood,0.09,h,164,240,240,164,158.0083,227.1683,39360,39360,35894.4834,td,null,null,null,null,null,null,"[1,2]"
,canvas-keyboard-response,263,288751,0.0-6.0-5.42,61,,,,,clear_screen,null,null,,,critical,t,d,c,164,240,158.0083,227.1683,240,164,trueblood,0.09,h,164,240,240,164,158.0083,227.1683,39360,39360,35894.4834,td,null,null,null,null,null,null,"[1,2]"
,canvas-keyboard-response,264,288952,0.0-6.0-0.43,61,,,,,pre trial waiting period,null,null,,,critical,t,c,d,240,164,164,240,240,164,spektor,0,w,240,164,164,240,240,164,39360,39360,39360,dc,null,null,null,null,null,null,"[3,2]"
,canvas-keyboard-response,265,289113,0.0-6.0-1.43,61,,,,,clear_screen,null,null,,,critical,t,c,d,240,164,164,240,240,164,spektor,0,w,240,164,164,240,240,164,39360,39360,39360,dc,null,null,null,null,null,null,"[3,2]"
,canvas-keyboard-response,266,290452,0.0-6.0-2.43,61,,,,,rectangles,null,null,,,critical,t,c,d,240,164,164,240,240,164,spektor,0,w,240,164,164,240,240,164,39360,39360,39360,dc,null,null,null,null,null,null,"[3,2]"
,canvas-keyboard-response,267,290616,0.0-6.0-3.43,61,,,,,clear_screen,null,null,,,critical,t,c,d,240,164,164,240,240,164,spektor,0,w,240,164,164,240,240,164,39360,39360,39360,dc,null,null,null,null,null,null,"[3,2]"
,canvas-keyboard-response,268,292045,0.0-6.0-4.43,61,,,,,make choice,1415,2,,,critical,t,c,d,240,164,164,240,240,164,spektor,0,w,240,164,164,240,240,164,39360,39360,39360,dc,null,null,null,null,null,null,"[3,2]"
,canvas-keyboard-response,269,292203,0.0-6.0-5.43,61,,,,,clear_screen,null,null,,,critical,t,c,d,240,164,164,240,240,164,spektor,0,w,240,164,164,240,240,164,39360,39360,39360,dc,null,null,null,null,null,null,"[3,2]"
,canvas-keyboard-response,270,292404,0.0-6.0-0.44,61,,,,,pre trial waiting period,null,null,,,critical,d,c,t,158.0083,227.1683,240,164,164,240,trueblood,0.09,h,164,240,240,164,158.0083,227.1683,39360,39360,35894.4834,dc,null,null,null,null,null,null,"[1,2]"
,canvas-keyboard-response,271,292568,0.0-6.0-1.44,61,,,,,clear_screen,null,null,,,critical,d,c,t,158.0083,227.1683,240,164,164,240,trueblood,0.09,h,164,240,240,164,158.0083,227.1683,39360,39360,35894.4834,dc,null,null,null,null,null,null,"[1,2]"
,canvas-keyboard-response,272,293904,0.0-6.0-2.44,61,,,,,rectangles,null,null,,,critical,d,c,t,158.0083,227.1683,240,164,164,240,trueblood,0.09,h,164,240,240,164,158.0083,227.1683,39360,39360,35894.4834,dc,null,null,null,null,null,null,"[1,2]"
,canvas-keyboard-response,273,294065,0.0-6.0-3.44,61,,,,,clear_screen,null,null,,,critical,d,c,t,158.0083,227.1683,240,164,164,240,trueblood,0.09,h,164,240,240,164,158.0083,227.1683,39360,39360,35894.4834,dc,null,null,null,null,null,null,"[1,2]"
,canvas-keyboard-response,274,296460,0.0-6.0-4.44,61,,,,,make choice,2385,1,,,critical,d,c,t,158.0083,227.1683,240,164,164,240,trueblood,0.09,h,164,240,240,164,158.0083,227.1683,39360,39360,35894.4834,dc,null,null,null,null,null,null,"[1,2]"
,canvas-keyboard-response,275,296620,0.0-6.0-5.44,61,,,,,clear_screen,null,null,,,critical,d,c,t,158.0083,227.1683,240,164,164,240,trueblood,0.09,h,164,240,240,164,158.0083,227.1683,39360,39360,35894.4834,dc,null,null,null,null,null,null,"[1,2]"
,canvas-keyboard-response,276,296821,0.0-6.0-0.45,61,,,,,pre trial waiting period,null,null,,,critical,d,t,c,154.6796,220.0396,164,240,240,164,spektor,0.14,h,164,240,240,164,154.6796,220.0396,39360,39360,34035.6388,dc,null,null,null,null,null,null,"[1,3]"
,canvas-keyboard-response,277,296982,0.0-6.0-1.45,61,,,,,clear_screen,null,null,,,critical,d,t,c,154.6796,220.0396,164,240,240,164,spektor,0.14,h,164,240,240,164,154.6796,220.0396,39360,39360,34035.6388,dc,null,null,null,null,null,null,"[1,3]"
,canvas-keyboard-response,278,298320,0.0-6.0-2.45,61,,,,,rectangles,null,null,,,critical,d,t,c,154.6796,220.0396,164,240,240,164,spektor,0.14,h,164,240,240,164,154.6796,220.0396,39360,39360,34035.6388,dc,null,null,null,null,null,null,"[1,3]"
,canvas-keyboard-response,279,298484,0.0-6.0-3.45,61,,,,,clear_screen,null,null,,,critical,d,t,c,154.6796,220.0396,164,240,240,164,spektor,0.14,h,164,240,240,164,154.6796,220.0396,39360,39360,34035.6388,dc,null,null,null,null,null,null,"[1,3]"
,canvas-keyboard-response,280,299828,0.0-6.0-4.45,61,,,,,make choice,1334,3,,,critical,d,t,c,154.6796,220.0396,164,240,240,164,spektor,0.14,h,164,240,240,164,154.6796,220.0396,39360,39360,34035.6388,dc,null,null,null,null,null,null,"[1,3]"
,canvas-keyboard-response,281,299989,0.0-6.0-5.45,61,,,,,clear_screen,null,null,,,critical,d,t,c,154.6796,220.0396,164,240,240,164,spektor,0.14,h,164,240,240,164,154.6796,220.0396,39360,39360,34035.6388,dc,null,null,null,null,null,null,"[1,3]"
,canvas-keyboard-response,282,300190,0.0-6.0-0.46,61,,,,,pre trial waiting period,null,null,,,critical,t,c,d,240,164,164,240,232.8713,160.6713,spektor,0.05,w,240,164,164,240,232.8713,160.6713,39360,39360,37415.7294,td,null,null,null,null,null,null,"[1,3]"
,canvas-keyboard-response,283,300349,0.0-6.0-1.46,61,,,,,clear_screen,null,null,,,critical,t,c,d,240,164,164,240,232.8713,160.6713,spektor,0.05,w,240,164,164,240,232.8713,160.6713,39360,39360,37415.7294,td,null,null,null,null,null,null,"[1,3]"
,canvas-keyboard-response,284,301688,0.0-6.0-2.46,61,,,,,rectangles,null,null,,,critical,t,c,d,240,164,164,240,232.8713,160.6713,spektor,0.05,w,240,164,164,240,232.8713,160.6713,39360,39360,37415.7294,td,null,null,null,null,null,null,"[1,3]"
,canvas-keyboard-response,285,301847,0.0-6.0-3.46,61,,,,,clear_screen,null,null,,,critical,t,c,d,240,164,164,240,232.8713,160.6713,spektor,0.05,w,240,164,164,240,232.8713,160.6713,39360,39360,37415.7294,td,null,null,null,null,null,null,"[1,3]"
,canvas-keyboard-response,286,304420,0.0-6.0-4.46,61,,,,,make choice,2564,1,,,critical,t,c,d,240,164,164,240,232.8713,160.6713,spektor,0.05,w,240,164,164,240,232.8713,160.6713,39360,39360,37415.7294,td,null,null,null,null,null,null,"[1,3]"
,canvas-keyboard-response,287,304578,0.0-6.0-5.46,61,,,,,clear_screen,null,null,,,critical,t,c,d,240,164,164,240,232.8713,160.6713,spektor,0.05,w,240,164,164,240,232.8713,160.6713,39360,39360,37415.7294,td,null,null,null,null,null,null,"[1,3]"
,canvas-keyboard-response,288,304779,0.0-6.0-0.47,61,,,,,pre trial waiting period,null,null,,,critical,c,t,d,240,164,164,240,160.6713,232.8713,spektor,0.05,h,164,240,240,164,160.6713,232.8713,39360,39360,37415.7294,dc,null,null,null,null,null,null,"[3,1]"
,canvas-keyboard-response,289,304940,0.0-6.0-1.47,61,,,,,clear_screen,null,null,,,critical,c,t,d,240,164,164,240,160.6713,232.8713,spektor,0.05,h,164,240,240,164,160.6713,232.8713,39360,39360,37415.7294,dc,null,null,null,null,null,null,"[3,1]"
,canvas-keyboard-response,290,306280,0.0-6.0-2.47,61,,,,,rectangles,null,null,,,critical,c,t,d,240,164,164,240,160.6713,232.8713,spektor,0.05,h,164,240,240,164,160.6713,232.8713,39360,39360,37415.7294,dc,null,null,null,null,null,null,"[3,1]"
,canvas-keyboard-response,291,306440,0.0-6.0-3.47,61,,,,,clear_screen,null,null,,,critical,c,t,d,240,164,164,240,160.6713,232.8713,spektor,0.05,h,164,240,240,164,160.6713,232.8713,39360,39360,37415.7294,dc,null,null,null,null,null,null,"[3,1]"
,canvas-keyboard-response,292,307900,0.0-6.0-4.47,61,,,,,make choice,1447,3,,,critical,c,t,d,240,164,164,240,160.6713,232.8713,spektor,0.05,h,164,240,240,164,160.6713,232.8713,39360,39360,37415.7294,dc,null,null,null,null,null,null,"[3,1]"
,canvas-keyboard-response,293,308059,0.0-6.0-5.47,61,,,,,clear_screen,null,null,,,critical,c,t,d,240,164,164,240,160.6713,232.8713,spektor,0.05,h,164,240,240,164,160.6713,232.8713,39360,39360,37415.7294,dc,null,null,null,null,null,null,"[3,1]"
,canvas-keyboard-response,294,308259,0.0-6.0-0.48,61,,,,,pre trial waiting period,null,null,,,catch,l,sw,sh,217,227,163,181,225,197,trueblood,null,null,null,null,null,null,null,null,null,null,null,,180,200,260,200,36000,52000,"[1,3]"
,canvas-keyboard-response,295,308424,0.0-6.0-1.48,61,,,,,clear_screen,null,null,,,catch,l,sw,sh,217,227,163,181,225,197,trueblood,null,null,null,null,null,null,null,null,null,null,null,,180,200,260,200,36000,52000,"[1,3]"
,canvas-keyboard-response,296,309760,0.0-6.0-2.48,61,,,,,rectangles,null,null,,,catch,l,sw,sh,217,227,163,181,225,197,trueblood,null,null,null,null,null,null,null,null,null,null,null,,180,200,260,200,36000,52000,"[1,3]"
,canvas-keyboard-response,297,309918,0.0-6.0-3.48,61,,,,,clear_screen,null,null,,,catch,l,sw,sh,217,227,163,181,225,197,trueblood,null,null,null,null,null,null,null,null,null,null,null,,180,200,260,200,36000,52000,"[1,3]"
,canvas-keyboard-response,298,311284,0.0-6.0-4.48,61,,,,,make choice,1355,1,,,catch,l,sw,sh,217,227,163,181,225,197,trueblood,null,null,null,null,null,null,null,null,null,null,null,,180,200,260,200,36000,52000,"[1,3]"
,canvas-keyboard-response,299,311443,0.0-6.0-5.48,61,,,,,clear_screen,null,null,,,catch,l,sw,sh,217,227,163,181,225,197,trueblood,null,null,null,null,null,null,null,null,null,null,null,,180,200,260,200,36000,52000,"[1,3]"
,canvas-keyboard-response,300,311645,0.0-6.0-0.49,61,,,,,pre trial waiting period,null,null,,,critical,t,d,c,240,164,227.1683,158.0083,164,240,trueblood,0.09,w,240,164,164,240,227.1683,158.0083,39360,39360,35894.4834,dc,null,null,null,null,null,null,"[2,3]"
,canvas-keyboard-response,301,311808,0.0-6.0-1.49,61,,,,,clear_screen,null,null,,,critical,t,d,c,240,164,227.1683,158.0083,164,240,trueblood,0.09,w,240,164,164,240,227.1683,158.0083,39360,39360,35894.4834,dc,null,null,null,null,null,null,"[2,3]"
,canvas-keyboard-response,302,313148,0.0-6.0-2.49,61,,,,,rectangles,null,null,,,critical,t,d,c,240,164,227.1683,158.0083,164,240,trueblood,0.09,w,240,164,164,240,227.1683,158.0083,39360,39360,35894.4834,dc,null,null,null,null,null,null,"[2,3]"
,canvas-keyboard-response,303,313306,0.0-6.0-3.49,61,,,,,clear_screen,null,null,,,critical,t,d,c,240,164,227.1683,158.0083,164,240,trueblood,0.09,w,240,164,164,240,227.1683,158.0083,39360,39360,35894.4834,dc,null,null,null,null,null,null,"[2,3]"
,canvas-keyboard-response,304,316172,0.0-6.0-4.49,61,,,,,make choice,2857,3,,,critical,t,d,c,240,164,227.1683,158.0083,164,240,trueblood,0.09,w,240,164,164,240,227.1683,158.0083,39360,39360,35894.4834,dc,null,null,null,null,null,null,"[2,3]"
,canvas-keyboard-response,305,316334,0.0-6.0-5.49,61,,,,,clear_screen,null,null,,,critical,t,d,c,240,164,227.1683,158.0083,164,240,trueblood,0.09,w,240,164,164,240,227.1683,158.0083,39360,39360,35894.4834,dc,null,null,null,null,null,null,"[2,3]"
,canvas-keyboard-response,306,316534,0.0-6.0-0.50,61,,,,,pre trial waiting period,null,null,,,critical,d,t,c,164,240,164,240,240,164,trueblood,0,h,164,240,240,164,164,240,39360,39360,39360,dc,null,null,null,null,null,null,"[1,3]"
,canvas-keyboard-response,307,316695,0.0-6.0-1.50,61,,,,,clear_screen,null,null,,,critical,d,t,c,164,240,164,240,240,164,trueblood,0,h,164,240,240,164,164,240,39360,39360,39360,dc,null,null,null,null,null,null,"[1,3]"
,canvas-keyboard-response,308,318032,0.0-6.0-2.50,61,,,,,rectangles,null,null,,,critical,d,t,c,164,240,164,240,240,164,trueblood,0,h,164,240,240,164,164,240,39360,39360,39360,dc,null,null,null,null,null,null,"[1,3]"
,canvas-keyboard-response,309,318196,0.0-6.0-3.50,61,,,,,clear_screen,null,null,,,critical,d,t,c,164,240,164,240,240,164,trueblood,0,h,164,240,240,164,164,240,39360,39360,39360,dc,null,null,null,null,null,null,"[1,3]"
,canvas-keyboard-response,310,319308,0.0-6.0-4.50,61,,,,,make choice,1102,3,,,critical,d,t,c,164,240,164,240,240,164,trueblood,0,h,164,240,240,164,164,240,39360,39360,39360,dc,null,null,null,null,null,null,"[1,3]"
,canvas-keyboard-response,311,319467,0.0-6.0-5.50,61,,,,,clear_screen,null,null,,,critical,d,t,c,164,240,164,240,240,164,trueblood,0,h,164,240,240,164,164,240,39360,39360,39360,dc,null,null,null,null,null,null,"[1,3]"
,canvas-keyboard-response,312,319668,0.0-6.0-0.51,61,,,,,pre trial waiting period,null,null,,,catch,l,sh,sw,285,179,169,176,185,214,spektor,null,null,null,null,null,null,null,null,null,null,null,,180,200,260,200,36000,52000,"[1,3]"
,canvas-keyboard-response,313,319829,0.0-6.0-1.51,61,,,,,clear_screen,null,null,,,catch,l,sh,sw,285,179,169,176,185,214,spektor,null,null,null,null,null,null,null,null,null,null,null,,180,200,260,200,36000,52000,"[1,3]"
,canvas-keyboard-response,314,321165,0.0-6.0-2.51,61,,,,,rectangles,null,null,,,catch,l,sh,sw,285,179,169,176,185,214,spektor,null,null,null,null,null,null,null,null,null,null,null,,180,200,260,200,36000,52000,"[1,3]"
,canvas-keyboard-response,315,321328,0.0-6.0-3.51,61,,,,,clear_screen,null,null,,,catch,l,sh,sw,285,179,169,176,185,214,spektor,null,null,null,null,null,null,null,null,null,null,null,,180,200,260,200,36000,52000,"[1,3]"
,canvas-keyboard-response,316,323772,0.0-6.0-4.51,61,,,,,make choice,2436,1,,,catch,l,sh,sw,285,179,169,176,185,214,spektor,null,null,null,null,null,null,null,null,null,null,null,,180,200,260,200,36000,52000,"[1,3]"
,canvas-keyboard-response,317,323933,0.0-6.0-5.51,61,,,,,clear_screen,null,null,,,catch,l,sh,sw,285,179,169,176,185,214,spektor,null,null,null,null,null,null,null,null,null,null,null,,180,200,260,200,36000,52000,"[1,3]"
,canvas-keyboard-response,318,324135,0.0-6.0-0.52,61,,,,,pre trial waiting period,null,null,,,critical,c,t,d,240,164,164,240,154.6796,220.0396,trueblood,0.14,h,164,240,240,164,154.6796,220.0396,39360,39360,34035.6388,dc,null,null,null,null,null,null,"[3,1]"
,canvas-keyboard-response,319,324295,0.0-6.0-1.52,61,,,,,clear_screen,null,null,,,critical,c,t,d,240,164,164,240,154.6796,220.0396,trueblood,0.14,h,164,240,240,164,154.6796,220.0396,39360,39360,34035.6388,dc,null,null,null,null,null,null,"[3,1]"
,canvas-keyboard-response,320,325631,0.0-6.0-2.52,61,,,,,rectangles,null,null,,,critical,c,t,d,240,164,164,240,154.6796,220.0396,trueblood,0.14,h,164,240,240,164,154.6796,220.0396,39360,39360,34035.6388,dc,null,null,null,null,null,null,"[3,1]"
,canvas-keyboard-response,321,325791,0.0-6.0-3.52,61,,,,,clear_screen,null,null,,,critical,c,t,d,240,164,164,240,154.6796,220.0396,trueblood,0.14,h,164,240,240,164,154.6796,220.0396,39360,39360,34035.6388,dc,null,null,null,null,null,null,"[3,1]"
,canvas-keyboard-response,322,330852,0.0-6.0-4.52,61,,,,,make choice,5049,1,,,critical,c,t,d,240,164,164,240,154.6796,220.0396,trueblood,0.14,h,164,240,240,164,154.6796,220.0396,39360,39360,34035.6388,dc,null,null,null,null,null,null,"[3,1]"
,canvas-keyboard-response,323,331010,0.0-6.0-5.52,61,,,,,clear_screen,null,null,,,critical,c,t,d,240,164,164,240,154.6796,220.0396,trueblood,0.14,h,164,240,240,164,154.6796,220.0396,39360,39360,34035.6388,dc,null,null,null,null,null,null,"[3,1]"
,canvas-keyboard-response,324,331212,0.0-6.0-0.53,61,,,,,pre trial waiting period,null,null,,,catch,sh,sw,l,216,164,168,213,261,197,spektor,null,null,null,null,null,null,null,null,null,null,null,,180,200,260,200,36000,52000,"[1,3]"
,canvas-keyboard-response,325,331373,0.0-6.0-1.53,61,,,,,clear_screen,null,null,,,catch,sh,sw,l,216,164,168,213,261,197,spektor,null,null,null,null,null,null,null,null,null,null,null,,180,200,260,200,36000,52000,"[1,3]"
,canvas-keyboard-response,326,332712,0.0-6.0-2.53,61,,,,,rectangles,null,null,,,catch,sh,sw,l,216,164,168,213,261,197,spektor,null,null,null,null,null,null,null,null,null,null,null,,180,200,260,200,36000,52000,"[1,3]"
,canvas-keyboard-response,327,332873,0.0-6.0-3.53,61,,,,,clear_screen,null,null,,,catch,sh,sw,l,216,164,168,213,261,197,spektor,null,null,null,null,null,null,null,null,null,null,null,,180,200,260,200,36000,52000,"[1,3]"
,canvas-keyboard-response,328,334148,0.0-6.0-4.53,61,,,,,make choice,1262,3,,,catch,sh,sw,l,216,164,168,213,261,197,spektor,null,null,null,null,null,null,null,null,null,null,null,,180,200,260,200,36000,52000,"[1,3]"
,canvas-keyboard-response,329,334309,0.0-6.0-5.53,61,,,,,clear_screen,null,null,,,catch,sh,sw,l,216,164,168,213,261,197,spektor,null,null,null,null,null,null,null,null,null,null,null,,180,200,260,200,36000,52000,"[1,3]"
,canvas-keyboard-response,330,334510,0.0-6.0-0.54,61,,,,,pre trial waiting period,null,null,,,critical,c,t,d,164,240,240,164,237.1485,162.6685,trueblood,0.02,w,240,164,164,240,237.1485,162.6685,39360,39360,38576.5967,tc,null,null,null,null,null,null,"[2,1]"
,canvas-keyboard-response,331,334672,0.0-6.0-1.54,61,,,,,clear_screen,null,null,,,critical,c,t,d,164,240,240,164,237.1485,162.6685,trueblood,0.02,w,240,164,164,240,237.1485,162.6685,39360,39360,38576.5967,tc,null,null,null,null,null,null,"[2,1]"
,canvas-keyboard-response,332,336011,0.0-6.0-2.54,61,,,,,rectangles,null,null,,,critical,c,t,d,164,240,240,164,237.1485,162.6685,trueblood,0.02,w,240,164,164,240,237.1485,162.6685,39360,39360,38576.5967,tc,null,null,null,null,null,null,"[2,1]"
,canvas-keyboard-response,333,336176,0.0-6.0-3.54,61,,,,,clear_screen,null,null,,,critical,c,t,d,164,240,240,164,237.1485,162.6685,trueblood,0.02,w,240,164,164,240,237.1485,162.6685,39360,39360,38576.5967,tc,null,null,null,null,null,null,"[2,1]"
,canvas-keyboard-response,334,338756,0.0-6.0-4.54,61,,,,,make choice,2570,1,,,critical,c,t,d,164,240,240,164,237.1485,162.6685,trueblood,0.02,w,240,164,164,240,237.1485,162.6685,39360,39360,38576.5967,tc,null,null,null,null,null,null,"[2,1]"
,canvas-keyboard-response,335,338915,0.0-6.0-5.54,61,,,,,clear_screen,null,null,,,critical,c,t,d,164,240,240,164,237.1485,162.6685,trueblood,0.02,w,240,164,164,240,237.1485,162.6685,39360,39360,38576.5967,tc,null,null,null,null,null,null,"[2,1]"
,canvas-keyboard-response,336,339116,0.0-6.0-0.55,61,,,,,pre trial waiting period,null,null,,,critical,d,t,c,240,164,240,164,164,240,trueblood,0,w,240,164,164,240,240,164,39360,39360,39360,tc,null,null,null,null,null,null,"[2,3]"
,canvas-keyboard-response,337,339280,0.0-6.0-1.55,61,,,,,clear_screen,null,null,,,critical,d,t,c,240,164,240,164,164,240,trueblood,0,w,240,164,164,240,240,164,39360,39360,39360,tc,null,null,null,null,null,null,"[2,3]"
,canvas-keyboard-response,338,340615,0.0-6.0-2.55,61,,,,,rectangles,null,null,,,critical,d,t,c,240,164,240,164,164,240,trueblood,0,w,240,164,164,240,240,164,39360,39360,39360,tc,null,null,null,null,null,null,"[2,3]"
,canvas-keyboard-response,339,340776,0.0-6.0-3.55,61,,,,,clear_screen,null,null,,,critical,d,t,c,240,164,240,164,164,240,trueblood,0,w,240,164,164,240,240,164,39360,39360,39360,tc,null,null,null,null,null,null,"[2,3]"
,canvas-keyboard-response,340,346541,0.0-6.0-4.55,61,,,,,make choice,5751,3,,,critical,d,t,c,240,164,240,164,164,240,trueblood,0,w,240,164,164,240,240,164,39360,39360,39360,tc,null,null,null,null,null,null,"[2,3]"
,canvas-keyboard-response,341,346700,0.0-6.0-5.55,61,,,,,clear_screen,null,null,,,critical,d,t,c,240,164,240,164,164,240,trueblood,0,w,240,164,164,240,240,164,39360,39360,39360,tc,null,null,null,null,null,null,"[2,3]"
,canvas-keyboard-response,342,346901,0.0-6.0-0.56,61,,,,,pre trial waiting period,null,null,,,catch,sh,sw,l,160,145,146,233,290,182,spektor,null,null,null,null,null,null,null,null,null,null,null,,180,200,260,200,36000,52000,"[2,3]"
,canvas-keyboard-response,343,347065,0.0-6.0-1.56,61,,,,,clear_screen,null,null,,,catch,sh,sw,l,160,145,146,233,290,182,spektor,null,null,null,null,null,null,null,null,null,null,null,,180,200,260,200,36000,52000,"[2,3]"
,canvas-keyboard-response,344,348401,0.0-6.0-2.56,61,,,,,rectangles,null,null,,,catch,sh,sw,l,160,145,146,233,290,182,spektor,null,null,null,null,null,null,null,null,null,null,null,,180,200,260,200,36000,52000,"[2,3]"
,canvas-keyboard-response,345,348560,0.0-6.0-3.56,61,,,,,clear_screen,null,null,,,catch,sh,sw,l,160,145,146,233,290,182,spektor,null,null,null,null,null,null,null,null,null,null,null,,180,200,260,200,36000,52000,"[2,3]"
,canvas-keyboard-response,346,349964,0.0-6.0-4.56,61,,,,,make choice,1395,3,,,catch,sh,sw,l,160,145,146,233,290,182,spektor,null,null,null,null,null,null,null,null,null,null,null,,180,200,260,200,36000,52000,"[2,3]"
,canvas-keyboard-response,347,350125,0.0-6.0-5.56,61,,,,,clear_screen,null,null,,,catch,sh,sw,l,160,145,146,233,290,182,spektor,null,null,null,null,null,null,null,null,null,null,null,,180,200,260,200,36000,52000,"[2,3]"
,canvas-keyboard-response,348,350326,0.0-6.0-0.57,61,,,,,pre trial waiting period,null,null,,,critical,c,d,t,164,240,227.1683,158.0083,240,164,trueblood,0.09,w,240,164,164,240,227.1683,158.0083,39360,39360,35894.4834,tc,null,null,null,null,null,null,"[3,1]"
,canvas-keyboard-response,349,350487,0.0-6.0-1.57,61,,,,,clear_screen,null,null,,,critical,c,d,t,164,240,227.1683,158.0083,240,164,trueblood,0.09,w,240,164,164,240,227.1683,158.0083,39360,39360,35894.4834,tc,null,null,null,null,null,null,"[3,1]"
,canvas-keyboard-response,350,351827,0.0-6.0-2.57,61,,,,,rectangles,null,null,,,critical,c,d,t,164,240,227.1683,158.0083,240,164,trueblood,0.09,w,240,164,164,240,227.1683,158.0083,39360,39360,35894.4834,tc,null,null,null,null,null,null,"[3,1]"
,canvas-keyboard-response,351,351991,0.0-6.0-3.57,61,,,,,clear_screen,null,null,,,critical,c,d,t,164,240,227.1683,158.0083,240,164,trueblood,0.09,w,240,164,164,240,227.1683,158.0083,39360,39360,35894.4834,tc,null,null,null,null,null,null,"[3,1]"
,canvas-keyboard-response,352,354620,0.0-6.0-4.57,61,,,,,make choice,2618,1,,,critical,c,d,t,164,240,227.1683,158.0083,240,164,trueblood,0.09,w,240,164,164,240,227.1683,158.0083,39360,39360,35894.4834,tc,null,null,null,null,null,null,"[3,1]"
,canvas-keyboard-response,353,354779,0.0-6.0-5.57,61,,,,,clear_screen,null,null,,,critical,c,d,t,164,240,227.1683,158.0083,240,164,trueblood,0.09,w,240,164,164,240,227.1683,158.0083,39360,39360,35894.4834,tc,null,null,null,null,null,null,"[3,1]"
,canvas-keyboard-response,354,354980,0.0-6.0-0.58,61,,,,,pre trial waiting period,null,null,,,catch,l,sw,sh,258,227,194,180,171,162,spektor,null,null,null,null,null,null,null,null,null,null,null,,180,200,260,200,36000,52000,"[1,2]"
,canvas-keyboard-response,355,355144,0.0-6.0-1.58,61,,,,,clear_screen,null,null,,,catch,l,sw,sh,258,227,194,180,171,162,spektor,null,null,null,null,null,null,null,null,null,null,null,,180,200,260,200,36000,52000,"[1,2]"
,canvas-keyboard-response,356,356484,0.0-6.0-2.58,61,,,,,rectangles,null,null,,,catch,l,sw,sh,258,227,194,180,171,162,spektor,null,null,null,null,null,null,null,null,null,null,null,,180,200,260,200,36000,52000,"[1,2]"
,canvas-keyboard-response,357,356647,0.0-6.0-3.58,61,,,,,clear_screen,null,null,,,catch,l,sw,sh,258,227,194,180,171,162,spektor,null,null,null,null,null,null,null,null,null,null,null,,180,200,260,200,36000,52000,"[1,2]"
,canvas-keyboard-response,358,359236,0.0-6.0-4.58,61,,,,,make choice,2574,1,,,catch,l,sw,sh,258,227,194,180,171,162,spektor,null,null,null,null,null,null,null,null,null,null,null,,180,200,260,200,36000,52000,"[1,2]"
,canvas-keyboard-response,359,359395,0.0-6.0-5.58,61,,,,,clear_screen,null,null,,,catch,l,sw,sh,258,227,194,180,171,162,spektor,null,null,null,null,null,null,null,null,null,null,null,,180,200,260,200,36000,52000,"[1,2]"
,canvas-keyboard-response,360,359596,0.0-6.0-0.59,61,,,,,pre trial waiting period,null,null,,,catch,l,sh,sw,183,243,183,200,145,238,spektor,null,null,null,null,null,null,null,null,null,null,null,,180,200,260,200,36000,52000,"[1,3]"
,canvas-keyboard-response,361,359757,0.0-6.0-1.59,61,,,,,clear_screen,null,null,,,catch,l,sh,sw,183,243,183,200,145,238,spektor,null,null,null,null,null,null,null,null,null,null,null,,180,200,260,200,36000,52000,"[1,3]"
,canvas-keyboard-response,362,361095,0.0-6.0-2.59,61,,,,,rectangles,null,null,,,catch,l,sh,sw,183,243,183,200,145,238,spektor,null,null,null,null,null,null,null,null,null,null,null,,180,200,260,200,36000,52000,"[1,3]"
,canvas-keyboard-response,363,361254,0.0-6.0-3.59,61,,,,,clear_screen,null,null,,,catch,l,sh,sw,183,243,183,200,145,238,spektor,null,null,null,null,null,null,null,null,null,null,null,,180,200,260,200,36000,52000,"[1,3]"
,canvas-keyboard-response,364,362837,0.0-6.0-4.59,61,,,,,make choice,1570,1,,,catch,l,sh,sw,183,243,183,200,145,238,spektor,null,null,null,null,null,null,null,null,null,null,null,,180,200,260,200,36000,52000,"[1,3]"
,canvas-keyboard-response,365,362995,0.0-6.0-5.59,61,,,,,clear_screen,null,null,,,catch,l,sh,sw,183,243,183,200,145,238,spektor,null,null,null,null,null,null,null,null,null,null,null,,180,200,260,200,36000,52000,"[1,3]"
,canvas-keyboard-response,366,363196,0.0-6.0-0.60,61,,,,,pre trial waiting period,null,null,,,critical,t,c,d,164,240,240,164,154.6796,220.0396,spektor,0.14,h,164,240,240,164,154.6796,220.0396,39360,39360,34035.6388,tc,null,null,null,null,null,null,"[1,2]"
,canvas-keyboard-response,367,363357,0.0-6.0-1.60,61,,,,,clear_screen,null,null,,,critical,t,c,d,164,240,240,164,154.6796,220.0396,spektor,0.14,h,164,240,240,164,154.6796,220.0396,39360,39360,34035.6388,tc,null,null,null,null,null,null,"[1,2]"
,canvas-keyboard-response,368,364692,0.0-6.0-2.60,61,,,,,rectangles,null,null,,,critical,t,c,d,164,240,240,164,154.6796,220.0396,spektor,0.14,h,164,240,240,164,154.6796,220.0396,39360,39360,34035.6388,tc,null,null,null,null,null,null,"[1,2]"
,canvas-keyboard-response,369,364852,0.0-6.0-3.60,61,,,,,clear_screen,null,null,,,critical,t,c,d,164,240,240,164,154.6796,220.0396,spektor,0.14,h,164,240,240,164,154.6796,220.0396,39360,39360,34035.6388,tc,null,null,null,null,null,null,"[1,2]"
,canvas-keyboard-response,370,366684,0.0-6.0-4.60,61,,,,,make choice,1819,1,,,critical,t,c,d,164,240,240,164,154.6796,220.0396,spektor,0.14,h,164,240,240,164,154.6796,220.0396,39360,39360,34035.6388,tc,null,null,null,null,null,null,"[1,2]"
,canvas-keyboard-response,371,366847,0.0-6.0-5.60,61,,,,,clear_screen,null,null,,,critical,t,c,d,164,240,240,164,154.6796,220.0396,spektor,0.14,h,164,240,240,164,154.6796,220.0396,39360,39360,34035.6388,tc,null,null,null,null,null,null,"[1,2]"
,canvas-keyboard-response,372,367048,0.0-6.0-0.61,61,,,,,pre trial waiting period,null,null,,,catch,sh,l,sw,208,207,187,290,163,177,trueblood,null,null,null,null,null,null,null,null,null,null,null,,180,200,260,200,36000,52000,"[2,3]"
,canvas-keyboard-response,373,367207,0.0-6.0-1.61,61,,,,,clear_screen,null,null,,,catch,sh,l,sw,208,207,187,290,163,177,trueblood,null,null,null,null,null,null,null,null,null,null,null,,180,200,260,200,36000,52000,"[2,3]"
,canvas-keyboard-response,374,368543,0.0-6.0-2.61,61,,,,,rectangles,null,null,,,catch,sh,l,sw,208,207,187,290,163,177,trueblood,null,null,null,null,null,null,null,null,null,null,null,,180,200,260,200,36000,52000,"[2,3]"
,canvas-keyboard-response,375,368706,0.0-6.0-3.61,61,,,,,clear_screen,null,null,,,catch,sh,l,sw,208,207,187,290,163,177,trueblood,null,null,null,null,null,null,null,null,null,null,null,,180,200,260,200,36000,52000,"[2,3]"
,canvas-keyboard-response,376,371324,0.0-6.0-4.61,61,,,,,make choice,2608,2,,,catch,sh,l,sw,208,207,187,290,163,177,trueblood,null,null,null,null,null,null,null,null,null,null,null,,180,200,260,200,36000,52000,"[2,3]"
,canvas-keyboard-response,377,371483,0.0-6.0-5.61,61,,,,,clear_screen,null,null,,,catch,sh,l,sw,208,207,187,290,163,177,trueblood,null,null,null,null,null,null,null,null,null,null,null,,180,200,260,200,36000,52000,"[2,3]"
,canvas-keyboard-response,378,371684,0.0-6.0-0.62,61,,,,,pre trial waiting period,null,null,,,critical,t,c,d,164,240,240,164,160.6713,232.8713,trueblood,0.05,h,164,240,240,164,160.6713,232.8713,39360,39360,37415.7294,tc,null,null,null,null,null,null,"[1,2]"
,canvas-keyboard-response,379,371848,0.0-6.0-1.62,61,,,,,clear_screen,null,null,,,critical,t,c,d,164,240,240,164,160.6713,232.8713,trueblood,0.05,h,164,240,240,164,160.6713,232.8713,39360,39360,37415.7294,tc,null,null,null,null,null,null,"[1,2]"
,canvas-keyboard-response,380,373187,0.0-6.0-2.62,61,,,,,rectangles,null,null,,,critical,t,c,d,164,240,240,164,160.6713,232.8713,trueblood,0.05,h,164,240,240,164,160.6713,232.8713,39360,39360,37415.7294,tc,null,null,null,null,null,null,"[1,2]"
,canvas-keyboard-response,381,373351,0.0-6.0-3.62,61,,,,,clear_screen,null,null,,,critical,t,c,d,164,240,240,164,160.6713,232.8713,trueblood,0.05,h,164,240,240,164,160.6713,232.8713,39360,39360,37415.7294,tc,null,null,null,null,null,null,"[1,2]"
,canvas-keyboard-response,382,375092,0.0-6.0-4.62,61,,,,,make choice,1728,1,,,critical,t,c,d,164,240,240,164,160.6713,232.8713,trueblood,0.05,h,164,240,240,164,160.6713,232.8713,39360,39360,37415.7294,tc,null,null,null,null,null,null,"[1,2]"
,canvas-keyboard-response,383,375250,0.0-6.0-5.62,61,,,,,clear_screen,null,null,,,critical,t,c,d,164,240,240,164,160.6713,232.8713,trueblood,0.05,h,164,240,240,164,160.6713,232.8713,39360,39360,37415.7294,tc,null,null,null,null,null,null,"[1,2]"
,canvas-keyboard-response,384,375452,0.0-6.0-0.63,61,,,,,pre trial waiting period,null,null,,,critical,t,d,c,240,164,232.8713,160.6713,164,240,trueblood,0.05,w,240,164,164,240,232.8713,160.6713,39360,39360,37415.7294,dc,null,null,null,null,null,null,"[2,3]"
,canvas-keyboard-response,385,375612,0.0-6.0-1.63,61,,,,,clear_screen,null,null,,,critical,t,d,c,240,164,232.8713,160.6713,164,240,trueblood,0.05,w,240,164,164,240,232.8713,160.6713,39360,39360,37415.7294,dc,null,null,null,null,null,null,"[2,3]"
,canvas-keyboard-response,386,376949,0.0-6.0-2.63,61,,,,,rectangles,null,null,,,critical,t,d,c,240,164,232.8713,160.6713,164,240,trueblood,0.05,w,240,164,164,240,232.8713,160.6713,39360,39360,37415.7294,dc,null,null,null,null,null,null,"[2,3]"
,canvas-keyboard-response,387,377111,0.0-6.0-3.63,61,,,,,clear_screen,null,null,,,critical,t,d,c,240,164,232.8713,160.6713,164,240,trueblood,0.05,w,240,164,164,240,232.8713,160.6713,39360,39360,37415.7294,dc,null,null,null,null,null,null,"[2,3]"
,canvas-keyboard-response,388,379100,0.0-6.0-4.63,61,,,,,make choice,1980,3,,,critical,t,d,c,240,164,232.8713,160.6713,164,240,trueblood,0.05,w,240,164,164,240,232.8713,160.6713,39360,39360,37415.7294,dc,null,null,null,null,null,null,"[2,3]"
,canvas-keyboard-response,389,379261,0.0-6.0-5.63,61,,,,,clear_screen,null,null,,,critical,t,d,c,240,164,232.8713,160.6713,164,240,trueblood,0.05,w,240,164,164,240,232.8713,160.6713,39360,39360,37415.7294,dc,null,null,null,null,null,null,"[2,3]"
,canvas-keyboard-response,390,379462,0.0-6.0-0.64,61,,,,,pre trial waiting period,null,null,,,catch,l,sh,sw,235,259,212,204,176,200,spektor,null,null,null,null,null,null,null,null,null,null,null,,180,200,260,200,36000,52000,"[1,2]"
,canvas-keyboard-response,391,379622,0.0-6.0-1.64,61,,,,,clear_screen,null,null,,,catch,l,sh,sw,235,259,212,204,176,200,spektor,null,null,null,null,null,null,null,null,null,null,null,,180,200,260,200,36000,52000,"[1,2]"
,canvas-keyboard-response,392,380958,0.0-6.0-2.64,61,,,,,rectangles,null,null,,,catch,l,sh,sw,235,259,212,204,176,200,spektor,null,null,null,null,null,null,null,null,null,null,null,,180,200,260,200,36000,52000,"[1,2]"
,canvas-keyboard-response,393,381117,0.0-6.0-3.64,61,,,,,clear_screen,null,null,,,catch,l,sh,sw,235,259,212,204,176,200,spektor,null,null,null,null,null,null,null,null,null,null,null,,180,200,260,200,36000,52000,"[1,2]"
,canvas-keyboard-response,394,382629,0.0-6.0-4.64,61,,,,,make choice,1499,1,,,catch,l,sh,sw,235,259,212,204,176,200,spektor,null,null,null,null,null,null,null,null,null,null,null,,180,200,260,200,36000,52000,"[1,2]"
,canvas-keyboard-response,395,382659,0.0-6.0-5.64,61,,,,,clear_screen,23,2,,,catch,l,sh,sw,235,259,212,204,176,200,spektor,null,null,null,null,null,null,null,null,null,null,null,,180,200,260,200,36000,52000,"[1,2]"
,canvas-keyboard-response,396,382861,0.0-6.0-0.65,61,,,,,pre trial waiting period,null,null,,,critical,t,c,d,240,164,164,240,220.0396,154.6796,spektor,0.14,w,240,164,164,240,220.0396,154.6796,39360,39360,34035.6388,tc,null,null,null,null,null,null,"[1,2]"
,canvas-keyboard-response,397,383024,0.0-6.0-1.65,61,,,,,clear_screen,null,null,,,critical,t,c,d,240,164,164,240,220.0396,154.6796,spektor,0.14,w,240,164,164,240,220.0396,154.6796,39360,39360,34035.6388,tc,null,null,null,null,null,null,"[1,2]"
,canvas-keyboard-response,398,384363,0.0-6.0-2.65,61,,,,,rectangles,null,null,,,critical,t,c,d,240,164,164,240,220.0396,154.6796,spektor,0.14,w,240,164,164,240,220.0396,154.6796,39360,39360,34035.6388,tc,null,null,null,null,null,null,"[1,2]"
,canvas-keyboard-response,399,384525,0.0-6.0-3.65,61,,,,,clear_screen,null,null,,,critical,t,c,d,240,164,164,240,220.0396,154.6796,spektor,0.14,w,240,164,164,240,220.0396,154.6796,39360,39360,34035.6388,tc,null,null,null,null,null,null,"[1,2]"
,canvas-keyboard-response,400,386276,0.0-6.0-4.65,61,,,,,make choice,1743,1,,,critical,t,c,d,240,164,164,240,220.0396,154.6796,spektor,0.14,w,240,164,164,240,220.0396,154.6796,39360,39360,34035.6388,tc,null,null,null,null,null,null,"[1,2]"
,canvas-keyboard-response,401,386437,0.0-6.0-5.65,61,,,,,clear_screen,null,null,,,critical,t,c,d,240,164,164,240,220.0396,154.6796,spektor,0.14,w,240,164,164,240,220.0396,154.6796,39360,39360,34035.6388,tc,null,null,null,null,null,null,"[1,2]"
,canvas-keyboard-response,402,386638,0.0-6.0-0.66,61,,,,,pre trial waiting period,null,null,,,critical,t,c,d,240,164,164,240,227.1683,158.0083,spektor,0.09,w,240,164,164,240,227.1683,158.0083,39360,39360,35894.4834,td,null,null,null,null,null,null,"[1,3]"
,canvas-keyboard-response,403,386800,0.0-6.0-1.66,61,,,,,clear_screen,null,null,,,critical,t,c,d,240,164,164,240,227.1683,158.0083,spektor,0.09,w,240,164,164,240,227.1683,158.0083,39360,39360,35894.4834,td,null,null,null,null,null,null,"[1,3]"
,canvas-keyboard-response,404,388137,0.0-6.0-2.66,61,,,,,rectangles,null,null,,,critical,t,c,d,240,164,164,240,227.1683,158.0083,spektor,0.09,w,240,164,164,240,227.1683,158.0083,39360,39360,35894.4834,td,null,null,null,null,null,null,"[1,3]"
,canvas-keyboard-response,405,388297,0.0-6.0-3.66,61,,,,,clear_screen,null,null,,,critical,t,c,d,240,164,164,240,227.1683,158.0083,spektor,0.09,w,240,164,164,240,227.1683,158.0083,39360,39360,35894.4834,td,null,null,null,null,null,null,"[1,3]"
,canvas-keyboard-response,406,390307,0.0-6.0-4.66,61,,,,,make choice,2001,1,,,critical,t,c,d,240,164,164,240,227.1683,158.0083,spektor,0.09,w,240,164,164,240,227.1683,158.0083,39360,39360,35894.4834,td,null,null,null,null,null,null,"[1,3]"
,canvas-keyboard-response,407,390469,0.0-6.0-5.66,61,,,,,clear_screen,null,null,,,critical,t,c,d,240,164,164,240,227.1683,158.0083,spektor,0.09,w,240,164,164,240,227.1683,158.0083,39360,39360,35894.4834,td,null,null,null,null,null,null,"[1,3]"
,canvas-keyboard-response,408,390670,0.0-6.0-0.67,61,,,,,pre trial waiting period,null,null,,,catch,sh,l,sw,183,212,204,273,152,227,spektor,null,null,null,null,null,null,null,null,null,null,null,,180,200,260,200,36000,52000,"[2,3]"
,canvas-keyboard-response,409,390832,0.0-6.0-1.67,61,,,,,clear_screen,null,null,,,catch,sh,l,sw,183,212,204,273,152,227,spektor,null,null,null,null,null,null,null,null,null,null,null,,180,200,260,200,36000,52000,"[2,3]"
,canvas-keyboard-response,410,392168,0.0-6.0-2.67,61,,,,,rectangles,null,null,,,catch,sh,l,sw,183,212,204,273,152,227,spektor,null,null,null,null,null,null,null,null,null,null,null,,180,200,260,200,36000,52000,"[2,3]"
,canvas-keyboard-response,411,392332,0.0-6.0-3.67,61,,,,,clear_screen,null,null,,,catch,sh,l,sw,183,212,204,273,152,227,spektor,null,null,null,null,null,null,null,null,null,null,null,,180,200,260,200,36000,52000,"[2,3]"
,canvas-keyboard-response,412,396668,0.0-6.0-4.67,61,,,,,make choice,4327,2,,,catch,sh,l,sw,183,212,204,273,152,227,spektor,null,null,null,null,null,null,null,null,null,null,null,,180,200,260,200,36000,52000,"[2,3]"
,canvas-keyboard-response,413,396826,0.0-6.0-5.67,61,,,,,clear_screen,null,null,,,catch,sh,l,sw,183,212,204,273,152,227,spektor,null,null,null,null,null,null,null,null,null,null,null,,180,200,260,200,36000,52000,"[2,3]"
,canvas-keyboard-response,414,397027,0.0-6.0-0.68,61,,,,,pre trial waiting period,null,null,,,critical,d,t,c,237.1485,162.6685,240,164,164,240,trueblood,0.02,w,240,164,164,240,237.1485,162.6685,39360,39360,38576.5967,td,null,null,null,null,null,null,"[2,1]"
,canvas-keyboard-response,415,397187,0.0-6.0-1.68,61,,,,,clear_screen,null,null,,,critical,d,t,c,237.1485,162.6685,240,164,164,240,trueblood,0.02,w,240,164,164,240,237.1485,162.6685,39360,39360,38576.5967,td,null,null,null,null,null,null,"[2,1]"
,canvas-keyboard-response,416,398525,0.0-6.0-2.68,61,,,,,rectangles,null,null,,,critical,d,t,c,237.1485,162.6685,240,164,164,240,trueblood,0.02,w,240,164,164,240,237.1485,162.6685,39360,39360,38576.5967,td,null,null,null,null,null,null,"[2,1]"
,canvas-keyboard-response,417,398688,0.0-6.0-3.68,61,,,,,clear_screen,null,null,,,critical,d,t,c,237.1485,162.6685,240,164,164,240,trueblood,0.02,w,240,164,164,240,237.1485,162.6685,39360,39360,38576.5967,td,null,null,null,null,null,null,"[2,1]"
,canvas-keyboard-response,418,400988,0.0-6.0-4.68,61,,,,,make choice,2288,2,,,critical,d,t,c,237.1485,162.6685,240,164,164,240,trueblood,0.02,w,240,164,164,240,237.1485,162.6685,39360,39360,38576.5967,td,null,null,null,null,null,null,"[2,1]"
,canvas-keyboard-response,419,401146,0.0-6.0-5.68,61,,,,,clear_screen,null,null,,,critical,d,t,c,237.1485,162.6685,240,164,164,240,trueblood,0.02,w,240,164,164,240,237.1485,162.6685,39360,39360,38576.5967,td,null,null,null,null,null,null,"[2,1]"
,canvas-keyboard-response,420,401348,0.0-6.0-0.69,61,,,,,pre trial waiting period,null,null,,,catch,sw,sh,l,180,200,194,141,191,274,trueblood,null,null,null,null,null,null,null,null,null,null,null,,180,200,260,200,36000,52000,"[2,3]"
,canvas-keyboard-response,421,401509,0.0-6.0-1.69,61,,,,,clear_screen,null,null,,,catch,sw,sh,l,180,200,194,141,191,274,trueblood,null,null,null,null,null,null,null,null,null,null,null,,180,200,260,200,36000,52000,"[2,3]"
,canvas-keyboard-response,422,402845,0.0-6.0-2.69,61,,,,,rectangles,null,null,,,catch,sw,sh,l,180,200,194,141,191,274,trueblood,null,null,null,null,null,null,null,null,null,null,null,,180,200,260,200,36000,52000,"[2,3]"
,canvas-keyboard-response,423,403009,0.0-6.0-3.69,61,,,,,clear_screen,null,null,,,catch,sw,sh,l,180,200,194,141,191,274,trueblood,null,null,null,null,null,null,null,null,null,null,null,,180,200,260,200,36000,52000,"[2,3]"
,canvas-keyboard-response,424,404196,0.0-6.0-4.69,61,,,,,make choice,1179,3,,,catch,sw,sh,l,180,200,194,141,191,274,trueblood,null,null,null,null,null,null,null,null,null,null,null,,180,200,260,200,36000,52000,"[2,3]"
