success,trial_type,trial_index,time_elapsed,internal_node_id,sub_n,timeout,failed_images,failed_audio,failed_video,screen_id,rt,response,stimulus,view_history,trial,r1,r2,r3,w1,h1,w2,h2,w3,h3,display,tdd,tdo,tw,th,cw,ch,dw,dh,ta,ca,da,probe,csls,csss,clls,clss,sa,la,probe_rects
TRUE,fullscreen,0,2272,0.0-0.0,66,,,,,,,,,,,,,,,,,,,,,,,,,,,,,,,,,,,,,,,
TRUE,preload,1,2284,0.0-1.0,66,FALSE,[],[],[],img preload,,,,,,,,,,,,,,,,,,,,,,,,,,,,,,,,,,
,survey-html-form,2,11725,0.0-2.0,66,,,,,enter-sub-number,9434,"{""response"":""57""}",,,,,,,,,,,,,,,,,,,,,,,,,,,,,,,,
,image-button-response,3,33321,0.0-3.0,66,,,,,,21529,0,consent.png,,,,,,,,,,,,,,,,,,,,,,,,,,,,,,,
,html-button-response,4,35386,0.0-4.0,66,,,,,intro mssg,2059,0,"<div style= ""font-size:25px;"" <p> <strong> Welcome! </strong><br> <p style=""color:#8B0000; font-size:25px;""><strong> Please do NOT exit full screen until you are done with the experiment. </strong> </p><p style=""font-size:25px;color:#8B0000;""> <strong> Your data will be lost <br> if you try to go back or refresh the page after the experiment starts. Feel free to click ""previous"" during the instructions, however.</strong> </p><br><p> <strong> Thanks in advance for your contribution to our research! </strong></p>",,,,,,,,,,,,,,,,,,,,,,,,,,,,,,,
,instructions,5,70466,0.0-5.0,66,,,,,instructions,35075,,,"[{""page_index"":0,""viewing_time"":7827},{""page_index"":1,""viewing_time"":6727},{""page_index"":2,""viewing_time"":2904},{""page_index"":3,""viewing_time"":10416},{""page_index"":4,""viewing_time"":3008},{""page_index"":5,""viewing_time"":1400},{""page_index"":6,""viewing_time"":1592},{""page_index"":7,""viewing_time"":1200}]",,,,,,,,,,,,,,,,,,,,,,,,,,,,,,
,canvas-keyboard-response,6,70671,0.0-6.0-0.0,66,,,,,pre trial waiting period,null,null,,,critical,d,t,c,162.6685,237.1485,164,240,240,164,spektor,0.02,h,164,240,240,164,162.6685,237.1485,39360,39360,38576.5967,tc,null,null,null,null,null,null,"[2,3]"
,canvas-keyboard-response,7,70833,0.0-6.0-1.0,66,,,,,clear_screen,null,null,,,critical,d,t,c,162.6685,237.1485,164,240,240,164,spektor,0.02,h,164,240,240,164,162.6685,237.1485,39360,39360,38576.5967,tc,null,null,null,null,null,null,"[2,3]"
,canvas-keyboard-response,8,72173,0.0-6.0-2.0,66,,,,,rectangles,null,null,,,critical,d,t,c,162.6685,237.1485,164,240,240,164,spektor,0.02,h,164,240,240,164,162.6685,237.1485,39360,39360,38576.5967,tc,null,null,null,null,null,null,"[2,3]"
,canvas-keyboard-response,9,72334,0.0-6.0-3.0,66,,,,,clear_screen,null,null,,,critical,d,t,c,162.6685,237.1485,164,240,240,164,spektor,0.02,h,164,240,240,164,162.6685,237.1485,39360,39360,38576.5967,tc,null,null,null,null,null,null,"[2,3]"
,canvas-keyboard-response,10,73290,0.0-6.0-4.0,66,,,,,make choice,945,3,,,critical,d,t,c,162.6685,237.1485,164,240,240,164,spektor,0.02,h,164,240,240,164,162.6685,237.1485,39360,39360,38576.5967,tc,null,null,null,null,null,null,"[2,3]"
,canvas-keyboard-response,11,73450,0.0-6.0-5.0,66,,,,,clear_screen,null,null,,,critical,d,t,c,162.6685,237.1485,164,240,240,164,spektor,0.02,h,164,240,240,164,162.6685,237.1485,39360,39360,38576.5967,tc,null,null,null,null,null,null,"[2,3]"
,canvas-keyboard-response,12,73653,0.0-6.0-0.1,66,,,,,pre trial waiting period,null,null,,,critical,t,d,c,164,240,154.6796,220.0396,240,164,spektor,0.14,h,164,240,240,164,154.6796,220.0396,39360,39360,34035.6388,dc,null,null,null,null,null,null,"[2,3]"
,canvas-keyboard-response,13,73814,0.0-6.0-1.1,66,,,,,clear_screen,null,null,,,critical,t,d,c,164,240,154.6796,220.0396,240,164,spektor,0.14,h,164,240,240,164,154.6796,220.0396,39360,39360,34035.6388,dc,null,null,null,null,null,null,"[2,3]"
,canvas-keyboard-response,14,75154,0.0-6.0-2.1,66,,,,,rectangles,null,null,,,critical,t,d,c,164,240,154.6796,220.0396,240,164,spektor,0.14,h,164,240,240,164,154.6796,220.0396,39360,39360,34035.6388,dc,null,null,null,null,null,null,"[2,3]"
,canvas-keyboard-response,15,75313,0.0-6.0-3.1,66,,,,,clear_screen,null,null,,,critical,t,d,c,164,240,154.6796,220.0396,240,164,spektor,0.14,h,164,240,240,164,154.6796,220.0396,39360,39360,34035.6388,dc,null,null,null,null,null,null,"[2,3]"
,canvas-keyboard-response,16,78866,0.0-6.0-4.1,66,,,,,make choice,3538,3,,,critical,t,d,c,164,240,154.6796,220.0396,240,164,spektor,0.14,h,164,240,240,164,154.6796,220.0396,39360,39360,34035.6388,dc,null,null,null,null,null,null,"[2,3]"
,canvas-keyboard-response,17,79029,0.0-6.0-5.1,66,,,,,clear_screen,null,null,,,critical,t,d,c,164,240,154.6796,220.0396,240,164,spektor,0.14,h,164,240,240,164,154.6796,220.0396,39360,39360,34035.6388,dc,null,null,null,null,null,null,"[2,3]"
,canvas-keyboard-response,18,79231,0.0-6.0-0.2,66,,,,,pre trial waiting period,null,null,,,critical,t,d,c,164,240,162.6685,237.1485,240,164,trueblood,0.02,h,164,240,240,164,162.6685,237.1485,39360,39360,38576.5967,td,null,null,null,null,null,null,"[1,2]"
,canvas-keyboard-response,19,79390,0.0-6.0-1.2,66,,,,,clear_screen,null,null,,,critical,t,d,c,164,240,162.6685,237.1485,240,164,trueblood,0.02,h,164,240,240,164,162.6685,237.1485,39360,39360,38576.5967,td,null,null,null,null,null,null,"[1,2]"
,canvas-keyboard-response,20,80727,0.0-6.0-2.2,66,,,,,rectangles,null,null,,,critical,t,d,c,164,240,162.6685,237.1485,240,164,trueblood,0.02,h,164,240,240,164,162.6685,237.1485,39360,39360,38576.5967,td,null,null,null,null,null,null,"[1,2]"
,canvas-keyboard-response,21,80888,0.0-6.0-3.2,66,,,,,clear_screen,null,null,,,critical,t,d,c,164,240,162.6685,237.1485,240,164,trueblood,0.02,h,164,240,240,164,162.6685,237.1485,39360,39360,38576.5967,td,null,null,null,null,null,null,"[1,2]"
,canvas-keyboard-response,22,81713,0.0-6.0-4.2,66,,,,,make choice,813,1,,,critical,t,d,c,164,240,162.6685,237.1485,240,164,trueblood,0.02,h,164,240,240,164,162.6685,237.1485,39360,39360,38576.5967,td,null,null,null,null,null,null,"[1,2]"
,canvas-keyboard-response,23,81874,0.0-6.0-5.2,66,,,,,clear_screen,null,null,,,critical,t,d,c,164,240,162.6685,237.1485,240,164,trueblood,0.02,h,164,240,240,164,162.6685,237.1485,39360,39360,38576.5967,td,null,null,null,null,null,null,"[1,2]"
,canvas-keyboard-response,24,82075,0.0-6.0-0.3,66,,,,,pre trial waiting period,null,null,,,catch,sw,l,sh,180,200,174,233,179,149,trueblood,null,null,null,null,null,null,null,null,null,null,null,,180,200,260,200,36000,52000,"[1,2]"
,canvas-keyboard-response,25,82236,0.0-6.0-1.3,66,,,,,clear_screen,null,null,,,catch,sw,l,sh,180,200,174,233,179,149,trueblood,null,null,null,null,null,null,null,null,null,null,null,,180,200,260,200,36000,52000,"[1,2]"
,canvas-keyboard-response,26,83573,0.0-6.0-2.3,66,,,,,rectangles,null,null,,,catch,sw,l,sh,180,200,174,233,179,149,trueblood,null,null,null,null,null,null,null,null,null,null,null,,180,200,260,200,36000,52000,"[1,2]"
,canvas-keyboard-response,27,83734,0.0-6.0-3.3,66,,,,,clear_screen,null,null,,,catch,sw,l,sh,180,200,174,233,179,149,trueblood,null,null,null,null,null,null,null,null,null,null,null,,180,200,260,200,36000,52000,"[1,2]"
,canvas-keyboard-response,28,84298,0.0-6.0-4.3,66,,,,,make choice,554,2,,,catch,sw,l,sh,180,200,174,233,179,149,trueblood,null,null,null,null,null,null,null,null,null,null,null,,180,200,260,200,36000,52000,"[1,2]"
,canvas-keyboard-response,29,84455,0.0-6.0-5.3,66,,,,,clear_screen,null,null,,,catch,sw,l,sh,180,200,174,233,179,149,trueblood,null,null,null,null,null,null,null,null,null,null,null,,180,200,260,200,36000,52000,"[1,2]"
,canvas-keyboard-response,30,84658,0.0-6.0-0.4,66,,,,,pre trial waiting period,null,null,,,catch,sh,sw,l,161,184,176,180,279,228,spektor,null,null,null,null,null,null,null,null,null,null,null,,180,200,260,200,36000,52000,"[2,3]"
,canvas-keyboard-response,31,84819,0.0-6.0-1.4,66,,,,,clear_screen,null,null,,,catch,sh,sw,l,161,184,176,180,279,228,spektor,null,null,null,null,null,null,null,null,null,null,null,,180,200,260,200,36000,52000,"[2,3]"
,canvas-keyboard-response,32,86157,0.0-6.0-2.4,66,,,,,rectangles,null,null,,,catch,sh,sw,l,161,184,176,180,279,228,spektor,null,null,null,null,null,null,null,null,null,null,null,,180,200,260,200,36000,52000,"[2,3]"
,canvas-keyboard-response,33,86321,0.0-6.0-3.4,66,,,,,clear_screen,null,null,,,catch,sh,sw,l,161,184,176,180,279,228,spektor,null,null,null,null,null,null,null,null,null,null,null,,180,200,260,200,36000,52000,"[2,3]"
,canvas-keyboard-response,34,86713,0.0-6.0-4.4,66,,,,,make choice,383,3,,,catch,sh,sw,l,161,184,176,180,279,228,spektor,null,null,null,null,null,null,null,null,null,null,null,,180,200,260,200,36000,52000,"[2,3]"
,canvas-keyboard-response,35,86872,0.0-6.0-5.4,66,,,,,clear_screen,null,null,,,catch,sh,sw,l,161,184,176,180,279,228,spektor,null,null,null,null,null,null,null,null,null,null,null,,180,200,260,200,36000,52000,"[2,3]"
,canvas-keyboard-response,36,87074,0.0-6.0-0.5,66,,,,,pre trial waiting period,null,null,,,catch,sw,sh,l,180,200,201,142,228,177,trueblood,null,null,null,null,null,null,null,null,null,null,null,,180,200,260,200,36000,52000,"[1,3]"
,canvas-keyboard-response,37,87234,0.0-6.0-1.5,66,,,,,clear_screen,null,null,,,catch,sw,sh,l,180,200,201,142,228,177,trueblood,null,null,null,null,null,null,null,null,null,null,null,,180,200,260,200,36000,52000,"[1,3]"
,canvas-keyboard-response,38,88572,0.0-6.0-2.5,66,,,,,rectangles,null,null,,,catch,sw,sh,l,180,200,201,142,228,177,trueblood,null,null,null,null,null,null,null,null,null,null,null,,180,200,260,200,36000,52000,"[1,3]"
,canvas-keyboard-response,39,88736,0.0-6.0-3.5,66,,,,,clear_screen,null,null,,,catch,sw,sh,l,180,200,201,142,228,177,trueblood,null,null,null,null,null,null,null,null,null,null,null,,180,200,260,200,36000,52000,"[1,3]"
,canvas-keyboard-response,40,92153,0.0-6.0-4.5,66,,,,,make choice,3409,1,,,catch,sw,sh,l,180,200,201,142,228,177,trueblood,null,null,null,null,null,null,null,null,null,null,null,,180,200,260,200,36000,52000,"[1,3]"
,canvas-keyboard-response,41,92315,0.0-6.0-5.5,66,,,,,clear_screen,null,null,,,catch,sw,sh,l,180,200,201,142,228,177,trueblood,null,null,null,null,null,null,null,null,null,null,null,,180,200,260,200,36000,52000,"[1,3]"
,canvas-keyboard-response,42,92517,0.0-6.0-0.6,66,,,,,pre trial waiting period,null,null,,,critical,t,c,d,240,164,164,240,220.0396,154.6796,trueblood,0.14,w,240,164,164,240,220.0396,154.6796,39360,39360,34035.6388,tc,null,null,null,null,null,null,"[1,2]"
,canvas-keyboard-response,43,92682,0.0-6.0-1.6,66,,,,,clear_screen,null,null,,,critical,t,c,d,240,164,164,240,220.0396,154.6796,trueblood,0.14,w,240,164,164,240,220.0396,154.6796,39360,39360,34035.6388,tc,null,null,null,null,null,null,"[1,2]"
,canvas-keyboard-response,44,94018,0.0-6.0-2.6,66,,,,,rectangles,null,null,,,critical,t,c,d,240,164,164,240,220.0396,154.6796,trueblood,0.14,w,240,164,164,240,220.0396,154.6796,39360,39360,34035.6388,tc,null,null,null,null,null,null,"[1,2]"
,canvas-keyboard-response,45,94179,0.0-6.0-3.6,66,,,,,clear_screen,null,null,,,critical,t,c,d,240,164,164,240,220.0396,154.6796,trueblood,0.14,w,240,164,164,240,220.0396,154.6796,39360,39360,34035.6388,tc,null,null,null,null,null,null,"[1,2]"
,canvas-keyboard-response,46,94896,0.0-6.0-4.6,66,,,,,make choice,707,1,,,critical,t,c,d,240,164,164,240,220.0396,154.6796,trueblood,0.14,w,240,164,164,240,220.0396,154.6796,39360,39360,34035.6388,tc,null,null,null,null,null,null,"[1,2]"
,canvas-keyboard-response,47,95054,0.0-6.0-5.6,66,,,,,clear_screen,null,null,,,critical,t,c,d,240,164,164,240,220.0396,154.6796,trueblood,0.14,w,240,164,164,240,220.0396,154.6796,39360,39360,34035.6388,tc,null,null,null,null,null,null,"[1,2]"
,canvas-keyboard-response,48,95256,0.0-6.0-0.7,66,,,,,pre trial waiting period,null,null,,,catch,l,sw,sh,220,175,208,212,206,209,trueblood,null,null,null,null,null,null,null,null,null,null,null,,180,200,260,200,36000,52000,"[1,3]"
,canvas-keyboard-response,49,95420,0.0-6.0-1.7,66,,,,,clear_screen,null,null,,,catch,l,sw,sh,220,175,208,212,206,209,trueblood,null,null,null,null,null,null,null,null,null,null,null,,180,200,260,200,36000,52000,"[1,3]"
,canvas-keyboard-response,50,96757,0.0-6.0-2.7,66,,,,,rectangles,null,null,,,catch,l,sw,sh,220,175,208,212,206,209,trueblood,null,null,null,null,null,null,null,null,null,null,null,,180,200,260,200,36000,52000,"[1,3]"
,canvas-keyboard-response,51,96921,0.0-6.0-3.7,66,,,,,clear_screen,null,null,,,catch,l,sw,sh,220,175,208,212,206,209,trueblood,null,null,null,null,null,null,null,null,null,null,null,,180,200,260,200,36000,52000,"[1,3]"
,canvas-keyboard-response,52,97856,0.0-6.0-4.7,66,,,,,make choice,924,3,,,catch,l,sw,sh,220,175,208,212,206,209,trueblood,null,null,null,null,null,null,null,null,null,null,null,,180,200,260,200,36000,52000,"[1,3]"
,canvas-keyboard-response,53,98018,0.0-6.0-5.7,66,,,,,clear_screen,null,null,,,catch,l,sw,sh,220,175,208,212,206,209,trueblood,null,null,null,null,null,null,null,null,null,null,null,,180,200,260,200,36000,52000,"[1,3]"
,canvas-keyboard-response,54,98219,0.0-6.0-0.8,66,,,,,pre trial waiting period,null,null,,,catch,l,sh,sw,222,287,199,182,173,187,trueblood,null,null,null,null,null,null,null,null,null,null,null,,180,200,260,200,36000,52000,"[1,3]"
,canvas-keyboard-response,55,98382,0.0-6.0-1.8,66,,,,,clear_screen,null,null,,,catch,l,sh,sw,222,287,199,182,173,187,trueblood,null,null,null,null,null,null,null,null,null,null,null,,180,200,260,200,36000,52000,"[1,3]"
,canvas-keyboard-response,56,99722,0.0-6.0-2.8,66,,,,,rectangles,null,null,,,catch,l,sh,sw,222,287,199,182,173,187,trueblood,null,null,null,null,null,null,null,null,null,null,null,,180,200,260,200,36000,52000,"[1,3]"
,canvas-keyboard-response,57,99884,0.0-6.0-3.8,66,,,,,clear_screen,null,null,,,catch,l,sh,sw,222,287,199,182,173,187,trueblood,null,null,null,null,null,null,null,null,null,null,null,,180,200,260,200,36000,52000,"[1,3]"
,canvas-keyboard-response,58,100321,0.0-6.0-4.8,66,,,,,make choice,422,1,,,catch,l,sh,sw,222,287,199,182,173,187,trueblood,null,null,null,null,null,null,null,null,null,null,null,,180,200,260,200,36000,52000,"[1,3]"
,canvas-keyboard-response,59,100481,0.0-6.0-5.8,66,,,,,clear_screen,null,null,,,catch,l,sh,sw,222,287,199,182,173,187,trueblood,null,null,null,null,null,null,null,null,null,null,null,,180,200,260,200,36000,52000,"[1,3]"
,canvas-keyboard-response,60,100682,0.0-6.0-0.9,66,,,,,pre trial waiting period,null,null,,,catch,sw,sh,l,180,200,191,140,295,181,spektor,null,null,null,null,null,null,null,null,null,null,null,,180,200,260,200,36000,52000,"[1,3]"
,canvas-keyboard-response,61,100843,0.0-6.0-1.9,66,,,,,clear_screen,null,null,,,catch,sw,sh,l,180,200,191,140,295,181,spektor,null,null,null,null,null,null,null,null,null,null,null,,180,200,260,200,36000,52000,"[1,3]"
,canvas-keyboard-response,62,102181,0.0-6.0-2.9,66,,,,,rectangles,null,null,,,catch,sw,sh,l,180,200,191,140,295,181,spektor,null,null,null,null,null,null,null,null,null,null,null,,180,200,260,200,36000,52000,"[1,3]"
,canvas-keyboard-response,63,102340,0.0-6.0-3.9,66,,,,,clear_screen,null,null,,,catch,sw,sh,l,180,200,191,140,295,181,spektor,null,null,null,null,null,null,null,null,null,null,null,,180,200,260,200,36000,52000,"[1,3]"
,canvas-keyboard-response,64,102769,0.0-6.0-4.9,66,,,,,make choice,417,3,,,catch,sw,sh,l,180,200,191,140,295,181,spektor,null,null,null,null,null,null,null,null,null,null,null,,180,200,260,200,36000,52000,"[1,3]"
,canvas-keyboard-response,65,102929,0.0-6.0-5.9,66,,,,,clear_screen,null,null,,,catch,sw,sh,l,180,200,191,140,295,181,spektor,null,null,null,null,null,null,null,null,null,null,null,,180,200,260,200,36000,52000,"[1,3]"
,canvas-keyboard-response,66,103130,0.0-6.0-0.10,66,,,,,pre trial waiting period,null,null,,,critical,t,d,c,240,164,240,164,164,240,spektor,0,w,240,164,164,240,240,164,39360,39360,39360,td,null,null,null,null,null,null,"[1,2]"
,canvas-keyboard-response,67,103292,0.0-6.0-1.10,66,,,,,clear_screen,null,null,,,critical,t,d,c,240,164,240,164,164,240,spektor,0,w,240,164,164,240,240,164,39360,39360,39360,td,null,null,null,null,null,null,"[1,2]"
,canvas-keyboard-response,68,104627,0.0-6.0-2.10,66,,,,,rectangles,null,null,,,critical,t,d,c,240,164,240,164,164,240,spektor,0,w,240,164,164,240,240,164,39360,39360,39360,td,null,null,null,null,null,null,"[1,2]"
,canvas-keyboard-response,69,104790,0.0-6.0-3.10,66,,,,,clear_screen,null,null,,,critical,t,d,c,240,164,240,164,164,240,spektor,0,w,240,164,164,240,240,164,39360,39360,39360,td,null,null,null,null,null,null,"[1,2]"
,canvas-keyboard-response,70,105993,0.0-6.0-4.10,66,,,,,make choice,1191,2,,,critical,t,d,c,240,164,240,164,164,240,spektor,0,w,240,164,164,240,240,164,39360,39360,39360,td,null,null,null,null,null,null,"[1,2]"
,canvas-keyboard-response,71,106154,0.0-6.0-5.10,66,,,,,clear_screen,null,null,,,critical,t,d,c,240,164,240,164,164,240,spektor,0,w,240,164,164,240,240,164,39360,39360,39360,td,null,null,null,null,null,null,"[1,2]"
,canvas-keyboard-response,72,106355,0.0-6.0-0.11,66,,,,,pre trial waiting period,null,null,,,critical,d,t,c,158.0083,227.1683,164,240,240,164,spektor,0.09,h,164,240,240,164,158.0083,227.1683,39360,39360,35894.4834,tc,null,null,null,null,null,null,"[2,3]"
,canvas-keyboard-response,73,106518,0.0-6.0-1.11,66,,,,,clear_screen,null,null,,,critical,d,t,c,158.0083,227.1683,164,240,240,164,spektor,0.09,h,164,240,240,164,158.0083,227.1683,39360,39360,35894.4834,tc,null,null,null,null,null,null,"[2,3]"
,canvas-keyboard-response,74,107857,0.0-6.0-2.11,66,,,,,rectangles,null,null,,,critical,d,t,c,158.0083,227.1683,164,240,240,164,spektor,0.09,h,164,240,240,164,158.0083,227.1683,39360,39360,35894.4834,tc,null,null,null,null,null,null,"[2,3]"
,canvas-keyboard-response,75,108016,0.0-6.0-3.11,66,,,,,clear_screen,null,null,,,critical,d,t,c,158.0083,227.1683,164,240,240,164,spektor,0.09,h,164,240,240,164,158.0083,227.1683,39360,39360,35894.4834,tc,null,null,null,null,null,null,"[2,3]"
,canvas-keyboard-response,76,108480,0.0-6.0-4.11,66,,,,,make choice,453,3,,,critical,d,t,c,158.0083,227.1683,164,240,240,164,spektor,0.09,h,164,240,240,164,158.0083,227.1683,39360,39360,35894.4834,tc,null,null,null,null,null,null,"[2,3]"
,canvas-keyboard-response,77,108638,0.0-6.0-5.11,66,,,,,clear_screen,null,null,,,critical,d,t,c,158.0083,227.1683,164,240,240,164,spektor,0.09,h,164,240,240,164,158.0083,227.1683,39360,39360,35894.4834,tc,null,null,null,null,null,null,"[2,3]"
,canvas-keyboard-response,78,108840,0.0-6.0-0.12,66,,,,,pre trial waiting period,null,null,,,critical,d,t,c,240,164,240,164,164,240,trueblood,0,w,240,164,164,240,240,164,39360,39360,39360,tc,null,null,null,null,null,null,"[2,3]"
,canvas-keyboard-response,79,109003,0.0-6.0-1.12,66,,,,,clear_screen,null,null,,,critical,d,t,c,240,164,240,164,164,240,trueblood,0,w,240,164,164,240,240,164,39360,39360,39360,tc,null,null,null,null,null,null,"[2,3]"
,canvas-keyboard-response,80,110340,0.0-6.0-2.12,66,,,,,rectangles,null,null,,,critical,d,t,c,240,164,240,164,164,240,trueblood,0,w,240,164,164,240,240,164,39360,39360,39360,tc,null,null,null,null,null,null,"[2,3]"
,canvas-keyboard-response,81,110501,0.0-6.0-3.12,66,,,,,clear_screen,null,null,,,critical,d,t,c,240,164,240,164,164,240,trueblood,0,w,240,164,164,240,240,164,39360,39360,39360,tc,null,null,null,null,null,null,"[2,3]"
,canvas-keyboard-response,82,112336,0.0-6.0-4.12,66,,,,,make choice,1825,3,,,critical,d,t,c,240,164,240,164,164,240,trueblood,0,w,240,164,164,240,240,164,39360,39360,39360,tc,null,null,null,null,null,null,"[2,3]"
,canvas-keyboard-response,83,112495,0.0-6.0-5.12,66,,,,,clear_screen,null,null,,,critical,d,t,c,240,164,240,164,164,240,trueblood,0,w,240,164,164,240,240,164,39360,39360,39360,tc,null,null,null,null,null,null,"[2,3]"
,canvas-keyboard-response,84,112697,0.0-6.0-0.13,66,,,,,pre trial waiting period,null,null,,,critical,d,t,c,164,240,164,240,240,164,trueblood,0,h,164,240,240,164,164,240,39360,39360,39360,dc,null,null,null,null,null,null,"[1,3]"
,canvas-keyboard-response,85,112856,0.0-6.0-1.13,66,,,,,clear_screen,null,null,,,critical,d,t,c,164,240,164,240,240,164,trueblood,0,h,164,240,240,164,164,240,39360,39360,39360,dc,null,null,null,null,null,null,"[1,3]"
,canvas-keyboard-response,86,114197,0.0-6.0-2.13,66,,,,,rectangles,null,null,,,critical,d,t,c,164,240,164,240,240,164,trueblood,0,h,164,240,240,164,164,240,39360,39360,39360,dc,null,null,null,null,null,null,"[1,3]"
,canvas-keyboard-response,87,114360,0.0-6.0-3.13,66,,,,,clear_screen,null,null,,,critical,d,t,c,164,240,164,240,240,164,trueblood,0,h,164,240,240,164,164,240,39360,39360,39360,dc,null,null,null,null,null,null,"[1,3]"
,canvas-keyboard-response,88,115648,0.0-6.0-4.13,66,,,,,make choice,1281,1,,,critical,d,t,c,164,240,164,240,240,164,trueblood,0,h,164,240,240,164,164,240,39360,39360,39360,dc,null,null,null,null,null,null,"[1,3]"
,canvas-keyboard-response,89,115809,0.0-6.0-5.13,66,,,,,clear_screen,null,null,,,critical,d,t,c,164,240,164,240,240,164,trueblood,0,h,164,240,240,164,164,240,39360,39360,39360,dc,null,null,null,null,null,null,"[1,3]"
,canvas-keyboard-response,90,116011,0.0-6.0-0.14,66,,,,,pre trial waiting period,null,null,,,critical,t,d,c,240,164,237.1485,162.6685,164,240,trueblood,0.02,w,240,164,164,240,237.1485,162.6685,39360,39360,38576.5967,dc,null,null,null,null,null,null,"[2,3]"
,canvas-keyboard-response,91,116177,0.0-6.0-1.14,66,,,,,clear_screen,null,null,,,critical,t,d,c,240,164,237.1485,162.6685,164,240,trueblood,0.02,w,240,164,164,240,237.1485,162.6685,39360,39360,38576.5967,dc,null,null,null,null,null,null,"[2,3]"
,canvas-keyboard-response,92,117517,0.0-6.0-2.14,66,,,,,rectangles,null,null,,,critical,t,d,c,240,164,237.1485,162.6685,164,240,trueblood,0.02,w,240,164,164,240,237.1485,162.6685,39360,39360,38576.5967,dc,null,null,null,null,null,null,"[2,3]"
,canvas-keyboard-response,93,117677,0.0-6.0-3.14,66,,,,,clear_screen,null,null,,,critical,t,d,c,240,164,237.1485,162.6685,164,240,trueblood,0.02,w,240,164,164,240,237.1485,162.6685,39360,39360,38576.5967,dc,null,null,null,null,null,null,"[2,3]"
,canvas-keyboard-response,94,118809,0.0-6.0-4.14,66,,,,,make choice,1117,3,,,critical,t,d,c,240,164,237.1485,162.6685,164,240,trueblood,0.02,w,240,164,164,240,237.1485,162.6685,39360,39360,38576.5967,dc,null,null,null,null,null,null,"[2,3]"
,canvas-keyboard-response,95,118970,0.0-6.0-5.14,66,,,,,clear_screen,null,null,,,critical,t,d,c,240,164,237.1485,162.6685,164,240,trueblood,0.02,w,240,164,164,240,237.1485,162.6685,39360,39360,38576.5967,dc,null,null,null,null,null,null,"[2,3]"
,canvas-keyboard-response,96,119171,0.0-6.0-0.15,66,,,,,pre trial waiting period,null,null,,,critical,t,c,d,164,240,240,164,158.0083,227.1683,spektor,0.09,h,164,240,240,164,158.0083,227.1683,39360,39360,35894.4834,td,null,null,null,null,null,null,"[1,3]"
,canvas-keyboard-response,97,119333,0.0-6.0-1.15,66,,,,,clear_screen,null,null,,,critical,t,c,d,164,240,240,164,158.0083,227.1683,spektor,0.09,h,164,240,240,164,158.0083,227.1683,39360,39360,35894.4834,td,null,null,null,null,null,null,"[1,3]"
,canvas-keyboard-response,98,120668,0.0-6.0-2.15,66,,,,,rectangles,null,null,,,critical,t,c,d,164,240,240,164,158.0083,227.1683,spektor,0.09,h,164,240,240,164,158.0083,227.1683,39360,39360,35894.4834,td,null,null,null,null,null,null,"[1,3]"
,canvas-keyboard-response,99,120828,0.0-6.0-3.15,66,,,,,clear_screen,null,null,,,critical,t,c,d,164,240,240,164,158.0083,227.1683,spektor,0.09,h,164,240,240,164,158.0083,227.1683,39360,39360,35894.4834,td,null,null,null,null,null,null,"[1,3]"
,canvas-keyboard-response,100,121584,0.0-6.0-4.15,66,,,,,make choice,747,3,,,critical,t,c,d,164,240,240,164,158.0083,227.1683,spektor,0.09,h,164,240,240,164,158.0083,227.1683,39360,39360,35894.4834,td,null,null,null,null,null,null,"[1,3]"
,canvas-keyboard-response,101,121745,0.0-6.0-5.15,66,,,,,clear_screen,null,null,,,critical,t,c,d,164,240,240,164,158.0083,227.1683,spektor,0.09,h,164,240,240,164,158.0083,227.1683,39360,39360,35894.4834,td,null,null,null,null,null,null,"[1,3]"
,canvas-keyboard-response,102,121946,0.0-6.0-0.16,66,,,,,pre trial waiting period,null,null,,,critical,t,c,d,240,164,164,240,237.1485,162.6685,spektor,0.02,w,240,164,164,240,237.1485,162.6685,39360,39360,38576.5967,dc,null,null,null,null,null,null,"[3,2]"
,canvas-keyboard-response,103,122106,0.0-6.0-1.16,66,,,,,clear_screen,null,null,,,critical,t,c,d,240,164,164,240,237.1485,162.6685,spektor,0.02,w,240,164,164,240,237.1485,162.6685,39360,39360,38576.5967,dc,null,null,null,null,null,null,"[3,2]"
,canvas-keyboard-response,104,123445,0.0-6.0-2.16,66,,,,,rectangles,null,null,,,critical,t,c,d,240,164,164,240,237.1485,162.6685,spektor,0.02,w,240,164,164,240,237.1485,162.6685,39360,39360,38576.5967,dc,null,null,null,null,null,null,"[3,2]"
,canvas-keyboard-response,105,123609,0.0-6.0-3.16,66,,,,,clear_screen,null,null,,,critical,t,c,d,240,164,164,240,237.1485,162.6685,spektor,0.02,w,240,164,164,240,237.1485,162.6685,39360,39360,38576.5967,dc,null,null,null,null,null,null,"[3,2]"
,canvas-keyboard-response,106,124792,0.0-6.0-4.16,66,,,,,make choice,1173,2,,,critical,t,c,d,240,164,164,240,237.1485,162.6685,spektor,0.02,w,240,164,164,240,237.1485,162.6685,39360,39360,38576.5967,dc,null,null,null,null,null,null,"[3,2]"
,canvas-keyboard-response,107,124954,0.0-6.0-5.16,66,,,,,clear_screen,null,null,,,critical,t,c,d,240,164,164,240,237.1485,162.6685,spektor,0.02,w,240,164,164,240,237.1485,162.6685,39360,39360,38576.5967,dc,null,null,null,null,null,null,"[3,2]"
,canvas-keyboard-response,108,125155,0.0-6.0-0.17,66,,,,,pre trial waiting period,null,null,,,critical,d,c,t,227.1683,158.0083,164,240,240,164,trueblood,0.09,w,240,164,164,240,227.1683,158.0083,39360,39360,35894.4834,td,null,null,null,null,null,null,"[3,1]"
,canvas-keyboard-response,109,125316,0.0-6.0-1.17,66,,,,,clear_screen,null,null,,,critical,d,c,t,227.1683,158.0083,164,240,240,164,trueblood,0.09,w,240,164,164,240,227.1683,158.0083,39360,39360,35894.4834,td,null,null,null,null,null,null,"[3,1]"
,canvas-keyboard-response,110,126654,0.0-6.0-2.17,66,,,,,rectangles,null,null,,,critical,d,c,t,227.1683,158.0083,164,240,240,164,trueblood,0.09,w,240,164,164,240,227.1683,158.0083,39360,39360,35894.4834,td,null,null,null,null,null,null,"[3,1]"
,canvas-keyboard-response,111,126814,0.0-6.0-3.17,66,,,,,clear_screen,null,null,,,critical,d,c,t,227.1683,158.0083,164,240,240,164,trueblood,0.09,w,240,164,164,240,227.1683,158.0083,39360,39360,35894.4834,td,null,null,null,null,null,null,"[3,1]"
,canvas-keyboard-response,112,129240,0.0-6.0-4.17,66,,,,,make choice,2413,3,,,critical,d,c,t,227.1683,158.0083,164,240,240,164,trueblood,0.09,w,240,164,164,240,227.1683,158.0083,39360,39360,35894.4834,td,null,null,null,null,null,null,"[3,1]"
,canvas-keyboard-response,113,129400,0.0-6.0-5.17,66,,,,,clear_screen,null,null,,,critical,d,c,t,227.1683,158.0083,164,240,240,164,trueblood,0.09,w,240,164,164,240,227.1683,158.0083,39360,39360,35894.4834,td,null,null,null,null,null,null,"[3,1]"
,canvas-keyboard-response,114,129602,0.0-6.0-0.18,66,,,,,pre trial waiting period,null,null,,,critical,d,t,c,154.6796,220.0396,164,240,240,164,trueblood,0.14,h,164,240,240,164,154.6796,220.0396,39360,39360,34035.6388,tc,null,null,null,null,null,null,"[2,3]"
,canvas-keyboard-response,115,129765,0.0-6.0-1.18,66,,,,,clear_screen,null,null,,,critical,d,t,c,154.6796,220.0396,164,240,240,164,trueblood,0.14,h,164,240,240,164,154.6796,220.0396,39360,39360,34035.6388,tc,null,null,null,null,null,null,"[2,3]"
,canvas-keyboard-response,116,131101,0.0-6.0-2.18,66,,,,,rectangles,null,null,,,critical,d,t,c,154.6796,220.0396,164,240,240,164,trueblood,0.14,h,164,240,240,164,154.6796,220.0396,39360,39360,34035.6388,tc,null,null,null,null,null,null,"[2,3]"
,canvas-keyboard-response,117,131265,0.0-6.0-3.18,66,,,,,clear_screen,null,null,,,critical,d,t,c,154.6796,220.0396,164,240,240,164,trueblood,0.14,h,164,240,240,164,154.6796,220.0396,39360,39360,34035.6388,tc,null,null,null,null,null,null,"[2,3]"
,canvas-keyboard-response,118,131649,0.0-6.0-4.18,66,,,,,make choice,374,3,,,critical,d,t,c,154.6796,220.0396,164,240,240,164,trueblood,0.14,h,164,240,240,164,154.6796,220.0396,39360,39360,34035.6388,tc,null,null,null,null,null,null,"[2,3]"
,canvas-keyboard-response,119,131806,0.0-6.0-5.18,66,,,,,clear_screen,null,null,,,critical,d,t,c,154.6796,220.0396,164,240,240,164,trueblood,0.14,h,164,240,240,164,154.6796,220.0396,39360,39360,34035.6388,tc,null,null,null,null,null,null,"[2,3]"
,canvas-keyboard-response,120,132007,0.0-6.0-0.19,66,,,,,pre trial waiting period,null,null,,,catch,sh,l,sw,207,187,214,273,190,194,spektor,null,null,null,null,null,null,null,null,null,null,null,,180,200,260,200,36000,52000,"[2,3]"
,canvas-keyboard-response,121,132170,0.0-6.0-1.19,66,,,,,clear_screen,null,null,,,catch,sh,l,sw,207,187,214,273,190,194,spektor,null,null,null,null,null,null,null,null,null,null,null,,180,200,260,200,36000,52000,"[2,3]"
,canvas-keyboard-response,122,133509,0.0-6.0-2.19,66,,,,,rectangles,null,null,,,catch,sh,l,sw,207,187,214,273,190,194,spektor,null,null,null,null,null,null,null,null,null,null,null,,180,200,260,200,36000,52000,"[2,3]"
,canvas-keyboard-response,123,133673,0.0-6.0-3.19,66,,,,,clear_screen,null,null,,,catch,sh,l,sw,207,187,214,273,190,194,spektor,null,null,null,null,null,null,null,null,null,null,null,,180,200,260,200,36000,52000,"[2,3]"
,canvas-keyboard-response,124,133824,0.0-6.0-4.19,66,,,,,make choice,140,2,,,catch,sh,l,sw,207,187,214,273,190,194,spektor,null,null,null,null,null,null,null,null,null,null,null,,180,200,260,200,36000,52000,"[2,3]"
,canvas-keyboard-response,125,133983,0.0-6.0-5.19,66,,,,,clear_screen,null,null,,,catch,sh,l,sw,207,187,214,273,190,194,spektor,null,null,null,null,null,null,null,null,null,null,null,,180,200,260,200,36000,52000,"[2,3]"
,canvas-keyboard-response,126,134185,0.0-6.0-0.20,66,,,,,pre trial waiting period,null,null,,,critical,c,t,d,240,164,164,240,162.6685,237.1485,spektor,0.02,h,164,240,240,164,162.6685,237.1485,39360,39360,38576.5967,td,null,null,null,null,null,null,"[2,3]"
,canvas-keyboard-response,127,134346,0.0-6.0-1.20,66,,,,,clear_screen,null,null,,,critical,c,t,d,240,164,164,240,162.6685,237.1485,spektor,0.02,h,164,240,240,164,162.6685,237.1485,39360,39360,38576.5967,td,null,null,null,null,null,null,"[2,3]"
,canvas-keyboard-response,128,135683,0.0-6.0-2.20,66,,,,,rectangles,null,null,,,critical,c,t,d,240,164,164,240,162.6685,237.1485,spektor,0.02,h,164,240,240,164,162.6685,237.1485,39360,39360,38576.5967,td,null,null,null,null,null,null,"[2,3]"
,canvas-keyboard-response,129,135847,0.0-6.0-3.20,66,,,,,clear_screen,null,null,,,critical,c,t,d,240,164,164,240,162.6685,237.1485,spektor,0.02,h,164,240,240,164,162.6685,237.1485,39360,39360,38576.5967,td,null,null,null,null,null,null,"[2,3]"
,canvas-keyboard-response,130,138608,0.0-6.0-4.20,66,,,,,make choice,2749,2,,,critical,c,t,d,240,164,164,240,162.6685,237.1485,spektor,0.02,h,164,240,240,164,162.6685,237.1485,39360,39360,38576.5967,td,null,null,null,null,null,null,"[2,3]"
,canvas-keyboard-response,131,138769,0.0-6.0-5.20,66,,,,,clear_screen,null,null,,,critical,c,t,d,240,164,164,240,162.6685,237.1485,spektor,0.02,h,164,240,240,164,162.6685,237.1485,39360,39360,38576.5967,td,null,null,null,null,null,null,"[2,3]"
,canvas-keyboard-response,132,138970,0.0-6.0-0.21,66,,,,,pre trial waiting period,null,null,,,critical,d,t,c,164,240,164,240,240,164,trueblood,0,h,164,240,240,164,164,240,39360,39360,39360,tc,null,null,null,null,null,null,"[2,3]"
,canvas-keyboard-response,133,139133,0.0-6.0-1.21,66,,,,,clear_screen,null,null,,,critical,d,t,c,164,240,164,240,240,164,trueblood,0,h,164,240,240,164,164,240,39360,39360,39360,tc,null,null,null,null,null,null,"[2,3]"
,canvas-keyboard-response,134,140469,0.0-6.0-2.21,66,,,,,rectangles,null,null,,,critical,d,t,c,164,240,164,240,240,164,trueblood,0,h,164,240,240,164,164,240,39360,39360,39360,tc,null,null,null,null,null,null,"[2,3]"
,canvas-keyboard-response,135,140626,0.0-6.0-3.21,66,,,,,clear_screen,null,null,,,critical,d,t,c,164,240,164,240,240,164,trueblood,0,h,164,240,240,164,164,240,39360,39360,39360,tc,null,null,null,null,null,null,"[2,3]"
,canvas-keyboard-response,136,141089,0.0-6.0-4.21,66,,,,,make choice,450,2,,,critical,d,t,c,164,240,164,240,240,164,trueblood,0,h,164,240,240,164,164,240,39360,39360,39360,tc,null,null,null,null,null,null,"[2,3]"
,canvas-keyboard-response,137,141248,0.0-6.0-5.21,66,,,,,clear_screen,null,null,,,critical,d,t,c,164,240,164,240,240,164,trueblood,0,h,164,240,240,164,164,240,39360,39360,39360,tc,null,null,null,null,null,null,"[2,3]"
,canvas-keyboard-response,138,141450,0.0-6.0-0.22,66,,,,,pre trial waiting period,null,null,,,catch,l,sh,sw,275,225,224,194,188,198,trueblood,null,null,null,null,null,null,null,null,null,null,null,,180,200,260,200,36000,52000,"[1,2]"
,canvas-keyboard-response,139,141614,0.0-6.0-1.22,66,,,,,clear_screen,null,null,,,catch,l,sh,sw,275,225,224,194,188,198,trueblood,null,null,null,null,null,null,null,null,null,null,null,,180,200,260,200,36000,52000,"[1,2]"
,canvas-keyboard-response,140,142953,0.0-6.0-2.22,66,,,,,rectangles,null,null,,,catch,l,sh,sw,275,225,224,194,188,198,trueblood,null,null,null,null,null,null,null,null,null,null,null,,180,200,260,200,36000,52000,"[1,2]"
,canvas-keyboard-response,141,143116,0.0-6.0-3.22,66,,,,,clear_screen,null,null,,,catch,l,sh,sw,275,225,224,194,188,198,trueblood,null,null,null,null,null,null,null,null,null,null,null,,180,200,260,200,36000,52000,"[1,2]"
,canvas-keyboard-response,142,143489,0.0-6.0-4.22,66,,,,,make choice,362,1,,,catch,l,sh,sw,275,225,224,194,188,198,trueblood,null,null,null,null,null,null,null,null,null,null,null,,180,200,260,200,36000,52000,"[1,2]"
,canvas-keyboard-response,143,143649,0.0-6.0-5.22,66,,,,,clear_screen,null,null,,,catch,l,sh,sw,275,225,224,194,188,198,trueblood,null,null,null,null,null,null,null,null,null,null,null,,180,200,260,200,36000,52000,"[1,2]"
,canvas-keyboard-response,144,143850,0.0-6.0-0.23,66,,,,,pre trial waiting period,null,null,,,critical,t,d,c,240,164,227.1683,158.0083,164,240,trueblood,0.09,w,240,164,164,240,227.1683,158.0083,39360,39360,35894.4834,dc,null,null,null,null,null,null,"[2,3]"
,canvas-keyboard-response,145,144014,0.0-6.0-1.23,66,,,,,clear_screen,null,null,,,critical,t,d,c,240,164,227.1683,158.0083,164,240,trueblood,0.09,w,240,164,164,240,227.1683,158.0083,39360,39360,35894.4834,dc,null,null,null,null,null,null,"[2,3]"
,canvas-keyboard-response,146,145353,0.0-6.0-2.23,66,,,,,rectangles,null,null,,,critical,t,d,c,240,164,227.1683,158.0083,164,240,trueblood,0.09,w,240,164,164,240,227.1683,158.0083,39360,39360,35894.4834,dc,null,null,null,null,null,null,"[2,3]"
,canvas-keyboard-response,147,145513,0.0-6.0-3.23,66,,,,,clear_screen,null,null,,,critical,t,d,c,240,164,227.1683,158.0083,164,240,trueblood,0.09,w,240,164,164,240,227.1683,158.0083,39360,39360,35894.4834,dc,null,null,null,null,null,null,"[2,3]"
,canvas-keyboard-response,148,147321,0.0-6.0-4.23,66,,,,,make choice,1799,3,,,critical,t,d,c,240,164,227.1683,158.0083,164,240,trueblood,0.09,w,240,164,164,240,227.1683,158.0083,39360,39360,35894.4834,dc,null,null,null,null,null,null,"[2,3]"
,canvas-keyboard-response,149,147482,0.0-6.0-5.23,66,,,,,clear_screen,null,null,,,critical,t,d,c,240,164,227.1683,158.0083,164,240,trueblood,0.09,w,240,164,164,240,227.1683,158.0083,39360,39360,35894.4834,dc,null,null,null,null,null,null,"[2,3]"
,canvas-keyboard-response,150,147682,0.0-6.0-0.24,66,,,,,pre trial waiting period,null,null,,,critical,c,d,t,240,164,160.6713,232.8713,164,240,trueblood,0.05,h,164,240,240,164,160.6713,232.8713,39360,39360,37415.7294,td,null,null,null,null,null,null,"[3,2]"
,canvas-keyboard-response,151,147844,0.0-6.0-1.24,66,,,,,clear_screen,null,null,,,critical,c,d,t,240,164,160.6713,232.8713,164,240,trueblood,0.05,h,164,240,240,164,160.6713,232.8713,39360,39360,37415.7294,td,null,null,null,null,null,null,"[3,2]"
,canvas-keyboard-response,152,149184,0.0-6.0-2.24,66,,,,,rectangles,null,null,,,critical,c,d,t,240,164,160.6713,232.8713,164,240,trueblood,0.05,h,164,240,240,164,160.6713,232.8713,39360,39360,37415.7294,td,null,null,null,null,null,null,"[3,2]"
,canvas-keyboard-response,153,149344,0.0-6.0-3.24,66,,,,,clear_screen,null,null,,,critical,c,d,t,240,164,160.6713,232.8713,164,240,trueblood,0.05,h,164,240,240,164,160.6713,232.8713,39360,39360,37415.7294,td,null,null,null,null,null,null,"[3,2]"
,canvas-keyboard-response,154,150234,0.0-6.0-4.24,66,,,,,make choice,878,3,,,critical,c,d,t,240,164,160.6713,232.8713,164,240,trueblood,0.05,h,164,240,240,164,160.6713,232.8713,39360,39360,37415.7294,td,null,null,null,null,null,null,"[3,2]"
,canvas-keyboard-response,155,150395,0.0-6.0-5.24,66,,,,,clear_screen,null,null,,,critical,c,d,t,240,164,160.6713,232.8713,164,240,trueblood,0.05,h,164,240,240,164,160.6713,232.8713,39360,39360,37415.7294,td,null,null,null,null,null,null,"[3,2]"
,canvas-keyboard-response,156,150596,0.0-6.0-0.25,66,,,,,pre trial waiting period,null,null,,,critical,t,c,d,240,164,164,240,220.0396,154.6796,spektor,0.14,w,240,164,164,240,220.0396,154.6796,39360,39360,34035.6388,tc,null,null,null,null,null,null,"[1,2]"
,canvas-keyboard-response,157,150756,0.0-6.0-1.25,66,,,,,clear_screen,null,null,,,critical,t,c,d,240,164,164,240,220.0396,154.6796,spektor,0.14,w,240,164,164,240,220.0396,154.6796,39360,39360,34035.6388,tc,null,null,null,null,null,null,"[1,2]"
,canvas-keyboard-response,158,152094,0.0-6.0-2.25,66,,,,,rectangles,null,null,,,critical,t,c,d,240,164,164,240,220.0396,154.6796,spektor,0.14,w,240,164,164,240,220.0396,154.6796,39360,39360,34035.6388,tc,null,null,null,null,null,null,"[1,2]"
,canvas-keyboard-response,159,152254,0.0-6.0-3.25,66,,,,,clear_screen,null,null,,,critical,t,c,d,240,164,164,240,220.0396,154.6796,spektor,0.14,w,240,164,164,240,220.0396,154.6796,39360,39360,34035.6388,tc,null,null,null,null,null,null,"[1,2]"
,canvas-keyboard-response,160,153024,0.0-6.0-4.25,66,,,,,make choice,758,1,,,critical,t,c,d,240,164,164,240,220.0396,154.6796,spektor,0.14,w,240,164,164,240,220.0396,154.6796,39360,39360,34035.6388,tc,null,null,null,null,null,null,"[1,2]"
,canvas-keyboard-response,161,153183,0.0-6.0-5.25,66,,,,,clear_screen,null,null,,,critical,t,c,d,240,164,164,240,220.0396,154.6796,spektor,0.14,w,240,164,164,240,220.0396,154.6796,39360,39360,34035.6388,tc,null,null,null,null,null,null,"[1,2]"
,canvas-keyboard-response,162,153385,0.0-6.0-0.26,66,,,,,pre trial waiting period,null,null,,,critical,c,d,t,164,240,232.8713,160.6713,240,164,spektor,0.05,w,240,164,164,240,232.8713,160.6713,39360,39360,37415.7294,dc,null,null,null,null,null,null,"[2,1]"
,canvas-keyboard-response,163,153546,0.0-6.0-1.26,66,,,,,clear_screen,null,null,,,critical,c,d,t,164,240,232.8713,160.6713,240,164,spektor,0.05,w,240,164,164,240,232.8713,160.6713,39360,39360,37415.7294,dc,null,null,null,null,null,null,"[2,1]"
,canvas-keyboard-response,164,154885,0.0-6.0-2.26,66,,,,,rectangles,null,null,,,critical,c,d,t,164,240,232.8713,160.6713,240,164,spektor,0.05,w,240,164,164,240,232.8713,160.6713,39360,39360,37415.7294,dc,null,null,null,null,null,null,"[2,1]"
,canvas-keyboard-response,165,155049,0.0-6.0-3.26,66,,,,,clear_screen,null,null,,,critical,c,d,t,164,240,232.8713,160.6713,240,164,spektor,0.05,w,240,164,164,240,232.8713,160.6713,39360,39360,37415.7294,dc,null,null,null,null,null,null,"[2,1]"
,canvas-keyboard-response,166,156697,0.0-6.0-4.26,66,,,,,make choice,1634,1,,,critical,c,d,t,164,240,232.8713,160.6713,240,164,spektor,0.05,w,240,164,164,240,232.8713,160.6713,39360,39360,37415.7294,dc,null,null,null,null,null,null,"[2,1]"
,canvas-keyboard-response,167,156858,0.0-6.0-5.26,66,,,,,clear_screen,null,null,,,critical,c,d,t,164,240,232.8713,160.6713,240,164,spektor,0.05,w,240,164,164,240,232.8713,160.6713,39360,39360,37415.7294,dc,null,null,null,null,null,null,"[2,1]"
,canvas-keyboard-response,168,157059,0.0-6.0-0.27,66,,,,,pre trial waiting period,null,null,,,critical,t,c,d,240,164,164,240,240,164,trueblood,0,w,240,164,164,240,240,164,39360,39360,39360,td,null,null,null,null,null,null,"[1,3]"
,canvas-keyboard-response,169,157221,0.0-6.0-1.27,66,,,,,clear_screen,null,null,,,critical,t,c,d,240,164,164,240,240,164,trueblood,0,w,240,164,164,240,240,164,39360,39360,39360,td,null,null,null,null,null,null,"[1,3]"
,canvas-keyboard-response,170,158556,0.0-6.0-2.27,66,,,,,rectangles,null,null,,,critical,t,c,d,240,164,164,240,240,164,trueblood,0,w,240,164,164,240,240,164,39360,39360,39360,td,null,null,null,null,null,null,"[1,3]"
,canvas-keyboard-response,171,158718,0.0-6.0-3.27,66,,,,,clear_screen,null,null,,,critical,t,c,d,240,164,164,240,240,164,trueblood,0,w,240,164,164,240,240,164,39360,39360,39360,td,null,null,null,null,null,null,"[1,3]"
,canvas-keyboard-response,172,159273,0.0-6.0-4.27,66,,,,,make choice,545,3,,,critical,t,c,d,240,164,164,240,240,164,trueblood,0,w,240,164,164,240,240,164,39360,39360,39360,td,null,null,null,null,null,null,"[1,3]"
,canvas-keyboard-response,173,159432,0.0-6.0-5.27,66,,,,,clear_screen,null,null,,,critical,t,c,d,240,164,164,240,240,164,trueblood,0,w,240,164,164,240,240,164,39360,39360,39360,td,null,null,null,null,null,null,"[1,3]"
,canvas-keyboard-response,174,159633,0.0-6.0-0.28,66,,,,,pre trial waiting period,null,null,,,catch,l,sw,sh,204,255,150,206,234,152,spektor,null,null,null,null,null,null,null,null,null,null,null,,180,200,260,200,36000,52000,"[1,3]"
,canvas-keyboard-response,175,159797,0.0-6.0-1.28,66,,,,,clear_screen,null,null,,,catch,l,sw,sh,204,255,150,206,234,152,spektor,null,null,null,null,null,null,null,null,null,null,null,,180,200,260,200,36000,52000,"[1,3]"
,canvas-keyboard-response,176,161136,0.0-6.0-2.28,66,,,,,rectangles,null,null,,,catch,l,sw,sh,204,255,150,206,234,152,spektor,null,null,null,null,null,null,null,null,null,null,null,,180,200,260,200,36000,52000,"[1,3]"
,canvas-keyboard-response,177,161301,0.0-6.0-3.28,66,,,,,clear_screen,null,null,,,catch,l,sw,sh,204,255,150,206,234,152,spektor,null,null,null,null,null,null,null,null,null,null,null,,180,200,260,200,36000,52000,"[1,3]"
,canvas-keyboard-response,178,161896,0.0-6.0-4.28,66,,,,,make choice,582,1,,,catch,l,sw,sh,204,255,150,206,234,152,spektor,null,null,null,null,null,null,null,null,null,null,null,,180,200,260,200,36000,52000,"[1,3]"
,canvas-keyboard-response,179,162057,0.0-6.0-5.28,66,,,,,clear_screen,null,null,,,catch,l,sw,sh,204,255,150,206,234,152,spektor,null,null,null,null,null,null,null,null,null,null,null,,180,200,260,200,36000,52000,"[1,3]"
,canvas-keyboard-response,180,162258,0.0-6.0-0.29,66,,,,,pre trial waiting period,null,null,,,critical,d,t,c,227.1683,158.0083,240,164,164,240,spektor,0.09,w,240,164,164,240,227.1683,158.0083,39360,39360,35894.4834,tc,null,null,null,null,null,null,"[2,3]"
,canvas-keyboard-response,181,162421,0.0-6.0-1.29,66,,,,,clear_screen,null,null,,,critical,d,t,c,227.1683,158.0083,240,164,164,240,spektor,0.09,w,240,164,164,240,227.1683,158.0083,39360,39360,35894.4834,tc,null,null,null,null,null,null,"[2,3]"
,canvas-keyboard-response,182,163758,0.0-6.0-2.29,66,,,,,rectangles,null,null,,,critical,d,t,c,227.1683,158.0083,240,164,164,240,spektor,0.09,w,240,164,164,240,227.1683,158.0083,39360,39360,35894.4834,tc,null,null,null,null,null,null,"[2,3]"
,canvas-keyboard-response,183,163922,0.0-6.0-3.29,66,,,,,clear_screen,null,null,,,critical,d,t,c,227.1683,158.0083,240,164,164,240,spektor,0.09,w,240,164,164,240,227.1683,158.0083,39360,39360,35894.4834,tc,null,null,null,null,null,null,"[2,3]"
,canvas-keyboard-response,184,167225,0.0-6.0-4.29,66,,,,,make choice,3290,3,,,critical,d,t,c,227.1683,158.0083,240,164,164,240,spektor,0.09,w,240,164,164,240,227.1683,158.0083,39360,39360,35894.4834,tc,null,null,null,null,null,null,"[2,3]"
,canvas-keyboard-response,185,167383,0.0-6.0-5.29,66,,,,,clear_screen,null,null,,,critical,d,t,c,227.1683,158.0083,240,164,164,240,spektor,0.09,w,240,164,164,240,227.1683,158.0083,39360,39360,35894.4834,tc,null,null,null,null,null,null,"[2,3]"
,canvas-keyboard-response,186,167585,0.0-6.0-0.30,66,,,,,pre trial waiting period,null,null,,,critical,t,d,c,164,240,154.6796,220.0396,240,164,trueblood,0.14,h,164,240,240,164,154.6796,220.0396,39360,39360,34035.6388,td,null,null,null,null,null,null,"[1,2]"
,canvas-keyboard-response,187,167750,0.0-6.0-1.30,66,,,,,clear_screen,null,null,,,critical,t,d,c,164,240,154.6796,220.0396,240,164,trueblood,0.14,h,164,240,240,164,154.6796,220.0396,39360,39360,34035.6388,td,null,null,null,null,null,null,"[1,2]"
,canvas-keyboard-response,188,169085,0.0-6.0-2.30,66,,,,,rectangles,null,null,,,critical,t,d,c,164,240,154.6796,220.0396,240,164,trueblood,0.14,h,164,240,240,164,154.6796,220.0396,39360,39360,34035.6388,td,null,null,null,null,null,null,"[1,2]"
,canvas-keyboard-response,189,169246,0.0-6.0-3.30,66,,,,,clear_screen,null,null,,,critical,t,d,c,164,240,154.6796,220.0396,240,164,trueblood,0.14,h,164,240,240,164,154.6796,220.0396,39360,39360,34035.6388,td,null,null,null,null,null,null,"[1,2]"
,canvas-keyboard-response,190,169881,0.0-6.0-4.30,66,,,,,make choice,626,1,,,critical,t,d,c,164,240,154.6796,220.0396,240,164,trueblood,0.14,h,164,240,240,164,154.6796,220.0396,39360,39360,34035.6388,td,null,null,null,null,null,null,"[1,2]"
,canvas-keyboard-response,191,170042,0.0-6.0-5.30,66,,,,,clear_screen,null,null,,,critical,t,d,c,164,240,154.6796,220.0396,240,164,trueblood,0.14,h,164,240,240,164,154.6796,220.0396,39360,39360,34035.6388,td,null,null,null,null,null,null,"[1,2]"
,canvas-keyboard-response,192,170244,0.0-6.0-0.31,66,,,,,pre trial waiting period,null,null,,,critical,t,c,d,164,240,240,164,164,240,trueblood,0,h,164,240,240,164,164,240,39360,39360,39360,td,null,null,null,null,null,null,"[1,3]"
,canvas-keyboard-response,193,170406,0.0-6.0-1.31,66,,,,,clear_screen,null,null,,,critical,t,c,d,164,240,240,164,164,240,trueblood,0,h,164,240,240,164,164,240,39360,39360,39360,td,null,null,null,null,null,null,"[1,3]"
,canvas-keyboard-response,194,171745,0.0-6.0-2.31,66,,,,,rectangles,null,null,,,critical,t,c,d,164,240,240,164,164,240,trueblood,0,h,164,240,240,164,164,240,39360,39360,39360,td,null,null,null,null,null,null,"[1,3]"
,canvas-keyboard-response,195,171906,0.0-6.0-3.31,66,,,,,clear_screen,null,null,,,critical,t,c,d,164,240,240,164,164,240,trueblood,0,h,164,240,240,164,164,240,39360,39360,39360,td,null,null,null,null,null,null,"[1,3]"
,canvas-keyboard-response,196,172576,0.0-6.0-4.31,66,,,,,make choice,663,3,,,critical,t,c,d,164,240,240,164,164,240,trueblood,0,h,164,240,240,164,164,240,39360,39360,39360,td,null,null,null,null,null,null,"[1,3]"
,canvas-keyboard-response,197,172736,0.0-6.0-5.31,66,,,,,clear_screen,null,null,,,critical,t,c,d,164,240,240,164,164,240,trueblood,0,h,164,240,240,164,164,240,39360,39360,39360,td,null,null,null,null,null,null,"[1,3]"
,canvas-keyboard-response,198,172938,0.0-6.0-0.32,66,,,,,pre trial waiting period,null,null,,,critical,d,c,t,240,164,164,240,240,164,trueblood,0,w,240,164,164,240,240,164,39360,39360,39360,dc,null,null,null,null,null,null,"[1,2]"
,canvas-keyboard-response,199,173098,0.0-6.0-1.32,66,,,,,clear_screen,null,null,,,critical,d,c,t,240,164,164,240,240,164,trueblood,0,w,240,164,164,240,240,164,39360,39360,39360,dc,null,null,null,null,null,null,"[1,2]"
,canvas-keyboard-response,200,174434,0.0-6.0-2.32,66,,,,,rectangles,null,null,,,critical,d,c,t,240,164,164,240,240,164,trueblood,0,w,240,164,164,240,240,164,39360,39360,39360,dc,null,null,null,null,null,null,"[1,2]"
,canvas-keyboard-response,201,174593,0.0-6.0-3.32,66,,,,,clear_screen,null,null,,,critical,d,c,t,240,164,164,240,240,164,trueblood,0,w,240,164,164,240,240,164,39360,39360,39360,dc,null,null,null,null,null,null,"[1,2]"
,canvas-keyboard-response,202,177184,0.0-6.0-4.32,66,,,,,make choice,2579,2,,,critical,d,c,t,240,164,164,240,240,164,trueblood,0,w,240,164,164,240,240,164,39360,39360,39360,dc,null,null,null,null,null,null,"[1,2]"
,canvas-keyboard-response,203,177343,0.0-6.0-5.32,66,,,,,clear_screen,null,null,,,critical,d,c,t,240,164,164,240,240,164,trueblood,0,w,240,164,164,240,240,164,39360,39360,39360,dc,null,null,null,null,null,null,"[1,2]"
,canvas-keyboard-response,204,177544,0.0-6.0-0.33,66,,,,,pre trial waiting period,null,null,,,critical,d,t,c,164,240,164,240,240,164,spektor,0,h,164,240,240,164,164,240,39360,39360,39360,dc,null,null,null,null,null,null,"[1,3]"
,canvas-keyboard-response,205,177705,0.0-6.0-1.33,66,,,,,clear_screen,null,null,,,critical,d,t,c,164,240,164,240,240,164,spektor,0,h,164,240,240,164,164,240,39360,39360,39360,dc,null,null,null,null,null,null,"[1,3]"
,canvas-keyboard-response,206,179044,0.0-6.0-2.33,66,,,,,rectangles,null,null,,,critical,d,t,c,164,240,164,240,240,164,spektor,0,h,164,240,240,164,164,240,39360,39360,39360,dc,null,null,null,null,null,null,"[1,3]"
,canvas-keyboard-response,207,179203,0.0-6.0-3.33,66,,,,,clear_screen,null,null,,,critical,d,t,c,164,240,164,240,240,164,spektor,0,h,164,240,240,164,164,240,39360,39360,39360,dc,null,null,null,null,null,null,"[1,3]"
,canvas-keyboard-response,208,179929,0.0-6.0-4.33,66,,,,,make choice,716,1,,,critical,d,t,c,164,240,164,240,240,164,spektor,0,h,164,240,240,164,164,240,39360,39360,39360,dc,null,null,null,null,null,null,"[1,3]"
,canvas-keyboard-response,209,180088,0.0-6.0-5.33,66,,,,,clear_screen,null,null,,,critical,d,t,c,164,240,164,240,240,164,spektor,0,h,164,240,240,164,164,240,39360,39360,39360,dc,null,null,null,null,null,null,"[1,3]"
,canvas-keyboard-response,210,180290,0.0-6.0-0.34,66,,,,,pre trial waiting period,null,null,,,critical,d,c,t,160.6713,232.8713,240,164,164,240,trueblood,0.05,h,164,240,240,164,160.6713,232.8713,39360,39360,37415.7294,dc,null,null,null,null,null,null,"[1,2]"
,canvas-keyboard-response,211,180453,0.0-6.0-1.34,66,,,,,clear_screen,null,null,,,critical,d,c,t,160.6713,232.8713,240,164,164,240,trueblood,0.05,h,164,240,240,164,160.6713,232.8713,39360,39360,37415.7294,dc,null,null,null,null,null,null,"[1,2]"
,canvas-keyboard-response,212,181788,0.0-6.0-2.34,66,,,,,rectangles,null,null,,,critical,d,c,t,160.6713,232.8713,240,164,164,240,trueblood,0.05,h,164,240,240,164,160.6713,232.8713,39360,39360,37415.7294,dc,null,null,null,null,null,null,"[1,2]"
,canvas-keyboard-response,213,181953,0.0-6.0-3.34,66,,,,,clear_screen,null,null,,,critical,d,c,t,160.6713,232.8713,240,164,164,240,trueblood,0.05,h,164,240,240,164,160.6713,232.8713,39360,39360,37415.7294,dc,null,null,null,null,null,null,"[1,2]"
,canvas-keyboard-response,214,186425,0.0-6.0-4.34,66,,,,,make choice,4460,1,,,critical,d,c,t,160.6713,232.8713,240,164,164,240,trueblood,0.05,h,164,240,240,164,160.6713,232.8713,39360,39360,37415.7294,dc,null,null,null,null,null,null,"[1,2]"
,canvas-keyboard-response,215,186585,0.0-6.0-5.34,66,,,,,clear_screen,null,null,,,critical,d,c,t,160.6713,232.8713,240,164,164,240,trueblood,0.05,h,164,240,240,164,160.6713,232.8713,39360,39360,37415.7294,dc,null,null,null,null,null,null,"[1,2]"
,canvas-keyboard-response,216,186786,0.0-6.0-0.35,66,,,,,pre trial waiting period,null,null,,,catch,sh,l,sw,178,153,259,173,180,180,spektor,null,null,null,null,null,null,null,null,null,null,null,,180,200,260,200,36000,52000,"[2,3]"
,canvas-keyboard-response,217,186949,0.0-6.0-1.35,66,,,,,clear_screen,null,null,,,catch,sh,l,sw,178,153,259,173,180,180,spektor,null,null,null,null,null,null,null,null,null,null,null,,180,200,260,200,36000,52000,"[2,3]"
,canvas-keyboard-response,218,188289,0.0-6.0-2.35,66,,,,,rectangles,null,null,,,catch,sh,l,sw,178,153,259,173,180,180,spektor,null,null,null,null,null,null,null,null,null,null,null,,180,200,260,200,36000,52000,"[2,3]"
,canvas-keyboard-response,219,188453,0.0-6.0-3.35,66,,,,,clear_screen,null,null,,,catch,sh,l,sw,178,153,259,173,180,180,spektor,null,null,null,null,null,null,null,null,null,null,null,,180,200,260,200,36000,52000,"[2,3]"
,canvas-keyboard-response,220,190024,0.0-6.0-4.35,66,,,,,make choice,1561,2,,,catch,sh,l,sw,178,153,259,173,180,180,spektor,null,null,null,null,null,null,null,null,null,null,null,,180,200,260,200,36000,52000,"[2,3]"
,canvas-keyboard-response,221,190184,0.0-6.0-5.35,66,,,,,clear_screen,null,null,,,catch,sh,l,sw,178,153,259,173,180,180,spektor,null,null,null,null,null,null,null,null,null,null,null,,180,200,260,200,36000,52000,"[2,3]"
,canvas-keyboard-response,222,190385,0.0-6.0-0.36,66,,,,,pre trial waiting period,null,null,,,critical,d,c,t,164,240,240,164,164,240,spektor,0,h,164,240,240,164,164,240,39360,39360,39360,td,null,null,null,null,null,null,"[3,1]"
,canvas-keyboard-response,223,190549,0.0-6.0-1.36,66,,,,,clear_screen,null,null,,,critical,d,c,t,164,240,240,164,164,240,spektor,0,h,164,240,240,164,164,240,39360,39360,39360,td,null,null,null,null,null,null,"[3,1]"
,canvas-keyboard-response,224,191885,0.0-6.0-2.36,66,,,,,rectangles,null,null,,,critical,d,c,t,164,240,240,164,164,240,spektor,0,h,164,240,240,164,164,240,39360,39360,39360,td,null,null,null,null,null,null,"[3,1]"
,canvas-keyboard-response,225,192049,0.0-6.0-3.36,66,,,,,clear_screen,null,null,,,critical,d,c,t,164,240,240,164,164,240,spektor,0,h,164,240,240,164,164,240,39360,39360,39360,td,null,null,null,null,null,null,"[3,1]"
,canvas-keyboard-response,226,192712,0.0-6.0-4.36,66,,,,,make choice,652,3,,,critical,d,c,t,164,240,240,164,164,240,spektor,0,h,164,240,240,164,164,240,39360,39360,39360,td,null,null,null,null,null,null,"[3,1]"
,canvas-keyboard-response,227,192871,0.0-6.0-5.36,66,,,,,clear_screen,null,null,,,critical,d,c,t,164,240,240,164,164,240,spektor,0,h,164,240,240,164,164,240,39360,39360,39360,td,null,null,null,null,null,null,"[3,1]"
,canvas-keyboard-response,228,193073,0.0-6.0-0.37,66,,,,,pre trial waiting period,null,null,,,critical,t,d,c,164,240,160.6713,232.8713,240,164,spektor,0.05,h,164,240,240,164,160.6713,232.8713,39360,39360,37415.7294,dc,null,null,null,null,null,null,"[2,3]"
,canvas-keyboard-response,229,193232,0.0-6.0-1.37,66,,,,,clear_screen,null,null,,,critical,t,d,c,164,240,160.6713,232.8713,240,164,spektor,0.05,h,164,240,240,164,160.6713,232.8713,39360,39360,37415.7294,dc,null,null,null,null,null,null,"[2,3]"
,canvas-keyboard-response,230,194569,0.0-6.0-2.37,66,,,,,rectangles,null,null,,,critical,t,d,c,164,240,160.6713,232.8713,240,164,spektor,0.05,h,164,240,240,164,160.6713,232.8713,39360,39360,37415.7294,dc,null,null,null,null,null,null,"[2,3]"
,canvas-keyboard-response,231,194733,0.0-6.0-3.37,66,,,,,clear_screen,null,null,,,critical,t,d,c,164,240,160.6713,232.8713,240,164,spektor,0.05,h,164,240,240,164,160.6713,232.8713,39360,39360,37415.7294,dc,null,null,null,null,null,null,"[2,3]"
,canvas-keyboard-response,232,196361,0.0-6.0-4.37,66,,,,,make choice,1617,3,,,critical,t,d,c,164,240,160.6713,232.8713,240,164,spektor,0.05,h,164,240,240,164,160.6713,232.8713,39360,39360,37415.7294,dc,null,null,null,null,null,null,"[2,3]"
,canvas-keyboard-response,233,196522,0.0-6.0-5.37,66,,,,,clear_screen,null,null,,,critical,t,d,c,164,240,160.6713,232.8713,240,164,spektor,0.05,h,164,240,240,164,160.6713,232.8713,39360,39360,37415.7294,dc,null,null,null,null,null,null,"[2,3]"
,canvas-keyboard-response,234,196723,0.0-6.0-0.38,66,,,,,pre trial waiting period,null,null,,,catch,sh,l,sw,213,149,279,190,150,206,trueblood,null,null,null,null,null,null,null,null,null,null,null,,180,200,260,200,36000,52000,"[1,2]"
,canvas-keyboard-response,235,196882,0.0-6.0-1.38,66,,,,,clear_screen,null,null,,,catch,sh,l,sw,213,149,279,190,150,206,trueblood,null,null,null,null,null,null,null,null,null,null,null,,180,200,260,200,36000,52000,"[1,2]"
,canvas-keyboard-response,236,198220,0.0-6.0-2.38,66,,,,,rectangles,null,null,,,catch,sh,l,sw,213,149,279,190,150,206,trueblood,null,null,null,null,null,null,null,null,null,null,null,,180,200,260,200,36000,52000,"[1,2]"
,canvas-keyboard-response,237,198381,0.0-6.0-3.38,66,,,,,clear_screen,null,null,,,catch,sh,l,sw,213,149,279,190,150,206,trueblood,null,null,null,null,null,null,null,null,null,null,null,,180,200,260,200,36000,52000,"[1,2]"
,canvas-keyboard-response,238,198977,0.0-6.0-4.38,66,,,,,make choice,582,2,,,catch,sh,l,sw,213,149,279,190,150,206,trueblood,null,null,null,null,null,null,null,null,null,null,null,,180,200,260,200,36000,52000,"[1,2]"
,canvas-keyboard-response,239,199136,0.0-6.0-5.38,66,,,,,clear_screen,null,null,,,catch,sh,l,sw,213,149,279,190,150,206,trueblood,null,null,null,null,null,null,null,null,null,null,null,,180,200,260,200,36000,52000,"[1,2]"
,canvas-keyboard-response,240,199337,0.0-6.0-0.39,66,,,,,pre trial waiting period,null,null,,,critical,d,t,c,160.6713,232.8713,164,240,240,164,spektor,0.05,h,164,240,240,164,160.6713,232.8713,39360,39360,37415.7294,tc,null,null,null,null,null,null,"[2,3]"
,canvas-keyboard-response,241,199500,0.0-6.0-1.39,66,,,,,clear_screen,null,null,,,critical,d,t,c,160.6713,232.8713,164,240,240,164,spektor,0.05,h,164,240,240,164,160.6713,232.8713,39360,39360,37415.7294,tc,null,null,null,null,null,null,"[2,3]"
,canvas-keyboard-response,242,200840,0.0-6.0-2.39,66,,,,,rectangles,null,null,,,critical,d,t,c,160.6713,232.8713,164,240,240,164,spektor,0.05,h,164,240,240,164,160.6713,232.8713,39360,39360,37415.7294,tc,null,null,null,null,null,null,"[2,3]"
,canvas-keyboard-response,243,201004,0.0-6.0-3.39,66,,,,,clear_screen,null,null,,,critical,d,t,c,160.6713,232.8713,164,240,240,164,spektor,0.05,h,164,240,240,164,160.6713,232.8713,39360,39360,37415.7294,tc,null,null,null,null,null,null,"[2,3]"
,canvas-keyboard-response,244,201569,0.0-6.0-4.39,66,,,,,make choice,552,3,,,critical,d,t,c,160.6713,232.8713,164,240,240,164,spektor,0.05,h,164,240,240,164,160.6713,232.8713,39360,39360,37415.7294,tc,null,null,null,null,null,null,"[2,3]"
,canvas-keyboard-response,245,201731,0.0-6.0-5.39,66,,,,,clear_screen,null,null,,,critical,d,t,c,160.6713,232.8713,164,240,240,164,spektor,0.05,h,164,240,240,164,160.6713,232.8713,39360,39360,37415.7294,tc,null,null,null,null,null,null,"[2,3]"
,canvas-keyboard-response,246,201932,0.0-6.0-0.40,66,,,,,pre trial waiting period,null,null,,,critical,c,d,t,164,240,227.1683,158.0083,240,164,trueblood,0.09,w,240,164,164,240,227.1683,158.0083,39360,39360,35894.4834,tc,null,null,null,null,null,null,"[3,1]"
,canvas-keyboard-response,247,202097,0.0-6.0-1.40,66,,,,,clear_screen,null,null,,,critical,c,d,t,164,240,227.1683,158.0083,240,164,trueblood,0.09,w,240,164,164,240,227.1683,158.0083,39360,39360,35894.4834,tc,null,null,null,null,null,null,"[3,1]"
,canvas-keyboard-response,248,203432,0.0-6.0-2.40,66,,,,,rectangles,null,null,,,critical,c,d,t,164,240,227.1683,158.0083,240,164,trueblood,0.09,w,240,164,164,240,227.1683,158.0083,39360,39360,35894.4834,tc,null,null,null,null,null,null,"[3,1]"
,canvas-keyboard-response,249,203594,0.0-6.0-3.40,66,,,,,clear_screen,null,null,,,critical,c,d,t,164,240,227.1683,158.0083,240,164,trueblood,0.09,w,240,164,164,240,227.1683,158.0083,39360,39360,35894.4834,tc,null,null,null,null,null,null,"[3,1]"
,canvas-keyboard-response,250,204129,0.0-6.0-4.40,66,,,,,make choice,524,3,,,critical,c,d,t,164,240,227.1683,158.0083,240,164,trueblood,0.09,w,240,164,164,240,227.1683,158.0083,39360,39360,35894.4834,tc,null,null,null,null,null,null,"[3,1]"
,canvas-keyboard-response,251,204287,0.0-6.0-5.40,66,,,,,clear_screen,null,null,,,critical,c,d,t,164,240,227.1683,158.0083,240,164,trueblood,0.09,w,240,164,164,240,227.1683,158.0083,39360,39360,35894.4834,tc,null,null,null,null,null,null,"[3,1]"
,canvas-keyboard-response,252,204489,0.0-6.0-0.41,66,,,,,pre trial waiting period,null,null,,,critical,d,c,t,240,164,164,240,240,164,spektor,0,w,240,164,164,240,240,164,39360,39360,39360,dc,null,null,null,null,null,null,"[1,2]"
,canvas-keyboard-response,253,204653,0.0-6.0-1.41,66,,,,,clear_screen,null,null,,,critical,d,c,t,240,164,164,240,240,164,spektor,0,w,240,164,164,240,240,164,39360,39360,39360,dc,null,null,null,null,null,null,"[1,2]"
,canvas-keyboard-response,254,205985,0.0-6.0-2.41,66,,,,,rectangles,null,null,,,critical,d,c,t,240,164,164,240,240,164,spektor,0,w,240,164,164,240,240,164,39360,39360,39360,dc,null,null,null,null,null,null,"[1,2]"
,canvas-keyboard-response,255,206149,0.0-6.0-3.41,66,,,,,clear_screen,null,null,,,critical,d,c,t,240,164,164,240,240,164,spektor,0,w,240,164,164,240,240,164,39360,39360,39360,dc,null,null,null,null,null,null,"[1,2]"
,canvas-keyboard-response,256,207305,0.0-6.0-4.41,66,,,,,make choice,1142,1,,,critical,d,c,t,240,164,164,240,240,164,spektor,0,w,240,164,164,240,240,164,39360,39360,39360,dc,null,null,null,null,null,null,"[1,2]"
,canvas-keyboard-response,257,207463,0.0-6.0-5.41,66,,,,,clear_screen,null,null,,,critical,d,c,t,240,164,164,240,240,164,spektor,0,w,240,164,164,240,240,164,39360,39360,39360,dc,null,null,null,null,null,null,"[1,2]"
,canvas-keyboard-response,258,207665,0.0-6.0-0.42,66,,,,,pre trial waiting period,null,null,,,critical,c,d,t,240,164,154.6796,220.0396,164,240,spektor,0.14,h,164,240,240,164,154.6796,220.0396,39360,39360,34035.6388,tc,null,null,null,null,null,null,"[3,1]"
,canvas-keyboard-response,259,207826,0.0-6.0-1.42,66,,,,,clear_screen,null,null,,,critical,c,d,t,240,164,154.6796,220.0396,164,240,spektor,0.14,h,164,240,240,164,154.6796,220.0396,39360,39360,34035.6388,tc,null,null,null,null,null,null,"[3,1]"
,canvas-keyboard-response,260,209161,0.0-6.0-2.42,66,,,,,rectangles,null,null,,,critical,c,d,t,240,164,154.6796,220.0396,164,240,spektor,0.14,h,164,240,240,164,154.6796,220.0396,39360,39360,34035.6388,tc,null,null,null,null,null,null,"[3,1]"
,canvas-keyboard-response,261,209322,0.0-6.0-3.42,66,,,,,clear_screen,null,null,,,critical,c,d,t,240,164,154.6796,220.0396,164,240,spektor,0.14,h,164,240,240,164,154.6796,220.0396,39360,39360,34035.6388,tc,null,null,null,null,null,null,"[3,1]"
,canvas-keyboard-response,262,209880,0.0-6.0-4.42,66,,,,,make choice,549,1,,,critical,c,d,t,240,164,154.6796,220.0396,164,240,spektor,0.14,h,164,240,240,164,154.6796,220.0396,39360,39360,34035.6388,tc,null,null,null,null,null,null,"[3,1]"
,canvas-keyboard-response,263,210039,0.0-6.0-5.42,66,,,,,clear_screen,null,null,,,critical,c,d,t,240,164,154.6796,220.0396,164,240,spektor,0.14,h,164,240,240,164,154.6796,220.0396,39360,39360,34035.6388,tc,null,null,null,null,null,null,"[3,1]"
,canvas-keyboard-response,264,210240,0.0-6.0-0.43,66,,,,,pre trial waiting period,null,null,,,critical,d,t,c,158.0083,227.1683,164,240,240,164,trueblood,0.09,h,164,240,240,164,158.0083,227.1683,39360,39360,35894.4834,td,null,null,null,null,null,null,"[2,1]"
,canvas-keyboard-response,265,210406,0.0-6.0-1.43,66,,,,,clear_screen,null,null,,,critical,d,t,c,158.0083,227.1683,164,240,240,164,trueblood,0.09,h,164,240,240,164,158.0083,227.1683,39360,39360,35894.4834,td,null,null,null,null,null,null,"[2,1]"
,canvas-keyboard-response,266,211741,0.0-6.0-2.43,66,,,,,rectangles,null,null,,,critical,d,t,c,158.0083,227.1683,164,240,240,164,trueblood,0.09,h,164,240,240,164,158.0083,227.1683,39360,39360,35894.4834,td,null,null,null,null,null,null,"[2,1]"
,canvas-keyboard-response,267,211901,0.0-6.0-3.43,66,,,,,clear_screen,null,null,,,critical,d,t,c,158.0083,227.1683,164,240,240,164,trueblood,0.09,h,164,240,240,164,158.0083,227.1683,39360,39360,35894.4834,td,null,null,null,null,null,null,"[2,1]"
,canvas-keyboard-response,268,214665,0.0-6.0-4.43,66,,,,,make choice,2756,2,,,critical,d,t,c,158.0083,227.1683,164,240,240,164,trueblood,0.09,h,164,240,240,164,158.0083,227.1683,39360,39360,35894.4834,td,null,null,null,null,null,null,"[2,1]"
,canvas-keyboard-response,269,214825,0.0-6.0-5.43,66,,,,,clear_screen,null,null,,,critical,d,t,c,158.0083,227.1683,164,240,240,164,trueblood,0.09,h,164,240,240,164,158.0083,227.1683,39360,39360,35894.4834,td,null,null,null,null,null,null,"[2,1]"
,canvas-keyboard-response,270,215026,0.0-6.0-0.44,66,,,,,pre trial waiting period,null,null,,,catch,l,sw,sh,271,212,145,190,235,194,spektor,null,null,null,null,null,null,null,null,null,null,null,,180,200,260,200,36000,52000,"[1,3]"
,canvas-keyboard-response,271,215186,0.0-6.0-1.44,66,,,,,clear_screen,null,null,,,catch,l,sw,sh,271,212,145,190,235,194,spektor,null,null,null,null,null,null,null,null,null,null,null,,180,200,260,200,36000,52000,"[1,3]"
,canvas-keyboard-response,272,216525,0.0-6.0-2.44,66,,,,,rectangles,null,null,,,catch,l,sw,sh,271,212,145,190,235,194,spektor,null,null,null,null,null,null,null,null,null,null,null,,180,200,260,200,36000,52000,"[1,3]"
,canvas-keyboard-response,273,216686,0.0-6.0-3.44,66,,,,,clear_screen,null,null,,,catch,l,sw,sh,271,212,145,190,235,194,spektor,null,null,null,null,null,null,null,null,null,null,null,,180,200,260,200,36000,52000,"[1,3]"
,canvas-keyboard-response,274,217961,0.0-6.0-4.44,66,,,,,make choice,1264,1,,,catch,l,sw,sh,271,212,145,190,235,194,spektor,null,null,null,null,null,null,null,null,null,null,null,,180,200,260,200,36000,52000,"[1,3]"
,canvas-keyboard-response,275,218122,0.0-6.0-5.44,66,,,,,clear_screen,null,null,,,catch,l,sw,sh,271,212,145,190,235,194,spektor,null,null,null,null,null,null,null,null,null,null,null,,180,200,260,200,36000,52000,"[1,3]"
,canvas-keyboard-response,276,218323,0.0-6.0-0.45,66,,,,,pre trial waiting period,null,null,,,critical,d,c,t,220.0396,154.6796,164,240,240,164,spektor,0.14,w,240,164,164,240,220.0396,154.6796,39360,39360,34035.6388,dc,null,null,null,null,null,null,"[1,2]"
,canvas-keyboard-response,277,218482,0.0-6.0-1.45,66,,,,,clear_screen,null,null,,,critical,d,c,t,220.0396,154.6796,164,240,240,164,spektor,0.14,w,240,164,164,240,220.0396,154.6796,39360,39360,34035.6388,dc,null,null,null,null,null,null,"[1,2]"
,canvas-keyboard-response,278,219822,0.0-6.0-2.45,66,,,,,rectangles,null,null,,,critical,d,c,t,220.0396,154.6796,164,240,240,164,spektor,0.14,w,240,164,164,240,220.0396,154.6796,39360,39360,34035.6388,dc,null,null,null,null,null,null,"[1,2]"
,canvas-keyboard-response,279,219985,0.0-6.0-3.45,66,,,,,clear_screen,null,null,,,critical,d,c,t,220.0396,154.6796,164,240,240,164,spektor,0.14,w,240,164,164,240,220.0396,154.6796,39360,39360,34035.6388,dc,null,null,null,null,null,null,"[1,2]"
,canvas-keyboard-response,280,222113,0.0-6.0-4.45,66,,,,,make choice,2117,1,,,critical,d,c,t,220.0396,154.6796,164,240,240,164,spektor,0.14,w,240,164,164,240,220.0396,154.6796,39360,39360,34035.6388,dc,null,null,null,null,null,null,"[1,2]"
,canvas-keyboard-response,281,222272,0.0-6.0-5.45,66,,,,,clear_screen,null,null,,,critical,d,c,t,220.0396,154.6796,164,240,240,164,spektor,0.14,w,240,164,164,240,220.0396,154.6796,39360,39360,34035.6388,dc,null,null,null,null,null,null,"[1,2]"
,canvas-keyboard-response,282,222473,0.0-6.0-0.46,66,,,,,pre trial waiting period,null,null,,,critical,d,t,c,158.0083,227.1683,164,240,240,164,spektor,0.09,h,164,240,240,164,158.0083,227.1683,39360,39360,35894.4834,dc,null,null,null,null,null,null,"[1,3]"
,canvas-keyboard-response,283,222638,0.0-6.0-1.46,66,,,,,clear_screen,null,null,,,critical,d,t,c,158.0083,227.1683,164,240,240,164,spektor,0.09,h,164,240,240,164,158.0083,227.1683,39360,39360,35894.4834,dc,null,null,null,null,null,null,"[1,3]"
,canvas-keyboard-response,284,223977,0.0-6.0-2.46,66,,,,,rectangles,null,null,,,critical,d,t,c,158.0083,227.1683,164,240,240,164,spektor,0.09,h,164,240,240,164,158.0083,227.1683,39360,39360,35894.4834,dc,null,null,null,null,null,null,"[1,3]"
,canvas-keyboard-response,285,224140,0.0-6.0-3.46,66,,,,,clear_screen,null,null,,,critical,d,t,c,158.0083,227.1683,164,240,240,164,spektor,0.09,h,164,240,240,164,158.0083,227.1683,39360,39360,35894.4834,dc,null,null,null,null,null,null,"[1,3]"
,canvas-keyboard-response,286,224737,0.0-6.0-4.46,66,,,,,make choice,586,3,,,critical,d,t,c,158.0083,227.1683,164,240,240,164,spektor,0.09,h,164,240,240,164,158.0083,227.1683,39360,39360,35894.4834,dc,null,null,null,null,null,null,"[1,3]"
,canvas-keyboard-response,287,224897,0.0-6.0-5.46,66,,,,,clear_screen,null,null,,,critical,d,t,c,158.0083,227.1683,164,240,240,164,spektor,0.09,h,164,240,240,164,158.0083,227.1683,39360,39360,35894.4834,dc,null,null,null,null,null,null,"[1,3]"
,canvas-keyboard-response,288,225098,0.0-6.0-0.47,66,,,,,pre trial waiting period,null,null,,,catch,sh,l,sw,188,195,207,284,159,200,spektor,null,null,null,null,null,null,null,null,null,null,null,,180,200,260,200,36000,52000,"[2,3]"
,canvas-keyboard-response,289,225259,0.0-6.0-1.47,66,,,,,clear_screen,null,null,,,catch,sh,l,sw,188,195,207,284,159,200,spektor,null,null,null,null,null,null,null,null,null,null,null,,180,200,260,200,36000,52000,"[2,3]"
,canvas-keyboard-response,290,226596,0.0-6.0-2.47,66,,,,,rectangles,null,null,,,catch,sh,l,sw,188,195,207,284,159,200,spektor,null,null,null,null,null,null,null,null,null,null,null,,180,200,260,200,36000,52000,"[2,3]"
,canvas-keyboard-response,291,226759,0.0-6.0-3.47,66,,,,,clear_screen,null,null,,,catch,sh,l,sw,188,195,207,284,159,200,spektor,null,null,null,null,null,null,null,null,null,null,null,,180,200,260,200,36000,52000,"[2,3]"
,canvas-keyboard-response,292,227449,0.0-6.0-4.47,66,,,,,make choice,679,2,,,catch,sh,l,sw,188,195,207,284,159,200,spektor,null,null,null,null,null,null,null,null,null,null,null,,180,200,260,200,36000,52000,"[2,3]"
,canvas-keyboard-response,293,227609,0.0-6.0-5.47,66,,,,,clear_screen,null,null,,,catch,sh,l,sw,188,195,207,284,159,200,spektor,null,null,null,null,null,null,null,null,null,null,null,,180,200,260,200,36000,52000,"[2,3]"
,canvas-keyboard-response,294,227810,0.0-6.0-0.48,66,,,,,pre trial waiting period,null,null,,,critical,d,t,c,232.8713,160.6713,240,164,164,240,trueblood,0.05,w,240,164,164,240,232.8713,160.6713,39360,39360,37415.7294,dc,null,null,null,null,null,null,"[1,3]"
,canvas-keyboard-response,295,227971,0.0-6.0-1.48,66,,,,,clear_screen,null,null,,,critical,d,t,c,232.8713,160.6713,240,164,164,240,trueblood,0.05,w,240,164,164,240,232.8713,160.6713,39360,39360,37415.7294,dc,null,null,null,null,null,null,"[1,3]"
,canvas-keyboard-response,296,229308,0.0-6.0-2.48,66,,,,,rectangles,null,null,,,critical,d,t,c,232.8713,160.6713,240,164,164,240,trueblood,0.05,w,240,164,164,240,232.8713,160.6713,39360,39360,37415.7294,dc,null,null,null,null,null,null,"[1,3]"
,canvas-keyboard-response,297,229473,0.0-6.0-3.48,66,,,,,clear_screen,null,null,,,critical,d,t,c,232.8713,160.6713,240,164,164,240,trueblood,0.05,w,240,164,164,240,232.8713,160.6713,39360,39360,37415.7294,dc,null,null,null,null,null,null,"[1,3]"
,canvas-keyboard-response,298,231289,0.0-6.0-4.48,66,,,,,make choice,1807,3,,,critical,d,t,c,232.8713,160.6713,240,164,164,240,trueblood,0.05,w,240,164,164,240,232.8713,160.6713,39360,39360,37415.7294,dc,null,null,null,null,null,null,"[1,3]"
,canvas-keyboard-response,299,231451,0.0-6.0-5.48,66,,,,,clear_screen,null,null,,,critical,d,t,c,232.8713,160.6713,240,164,164,240,trueblood,0.05,w,240,164,164,240,232.8713,160.6713,39360,39360,37415.7294,dc,null,null,null,null,null,null,"[1,3]"
,canvas-keyboard-response,300,231652,0.0-6.0-0.49,66,,,,,pre trial waiting period,null,null,,,critical,d,c,t,237.1485,162.6685,164,240,240,164,spektor,0.02,w,240,164,164,240,237.1485,162.6685,39360,39360,38576.5967,tc,null,null,null,null,null,null,"[3,2]"
,canvas-keyboard-response,301,231816,0.0-6.0-1.49,66,,,,,clear_screen,null,null,,,critical,d,c,t,237.1485,162.6685,164,240,240,164,spektor,0.02,w,240,164,164,240,237.1485,162.6685,39360,39360,38576.5967,tc,null,null,null,null,null,null,"[3,2]"
,canvas-keyboard-response,302,233155,0.0-6.0-2.49,66,,,,,rectangles,null,null,,,critical,d,c,t,237.1485,162.6685,164,240,240,164,spektor,0.02,w,240,164,164,240,237.1485,162.6685,39360,39360,38576.5967,tc,null,null,null,null,null,null,"[3,2]"
,canvas-keyboard-response,303,233317,0.0-6.0-3.49,66,,,,,clear_screen,null,null,,,critical,d,c,t,237.1485,162.6685,164,240,240,164,spektor,0.02,w,240,164,164,240,237.1485,162.6685,39360,39360,38576.5967,tc,null,null,null,null,null,null,"[3,2]"
,canvas-keyboard-response,304,234465,0.0-6.0-4.49,66,,,,,make choice,1134,2,,,critical,d,c,t,237.1485,162.6685,164,240,240,164,spektor,0.02,w,240,164,164,240,237.1485,162.6685,39360,39360,38576.5967,tc,null,null,null,null,null,null,"[3,2]"
,canvas-keyboard-response,305,234623,0.0-6.0-5.49,66,,,,,clear_screen,null,null,,,critical,d,c,t,237.1485,162.6685,164,240,240,164,spektor,0.02,w,240,164,164,240,237.1485,162.6685,39360,39360,38576.5967,tc,null,null,null,null,null,null,"[3,2]"
,canvas-keyboard-response,306,234824,0.0-6.0-0.50,66,,,,,pre trial waiting period,null,null,,,critical,c,t,d,164,240,240,164,232.8713,160.6713,spektor,0.05,w,240,164,164,240,232.8713,160.6713,39360,39360,37415.7294,tc,null,null,null,null,null,null,"[2,1]"
,canvas-keyboard-response,307,234986,0.0-6.0-1.50,66,,,,,clear_screen,null,null,,,critical,c,t,d,164,240,240,164,232.8713,160.6713,spektor,0.05,w,240,164,164,240,232.8713,160.6713,39360,39360,37415.7294,tc,null,null,null,null,null,null,"[2,1]"
,canvas-keyboard-response,308,236321,0.0-6.0-2.50,66,,,,,rectangles,null,null,,,critical,c,t,d,164,240,240,164,232.8713,160.6713,spektor,0.05,w,240,164,164,240,232.8713,160.6713,39360,39360,37415.7294,tc,null,null,null,null,null,null,"[2,1]"
,canvas-keyboard-response,309,236485,0.0-6.0-3.50,66,,,,,clear_screen,null,null,,,critical,c,t,d,164,240,240,164,232.8713,160.6713,spektor,0.05,w,240,164,164,240,232.8713,160.6713,39360,39360,37415.7294,tc,null,null,null,null,null,null,"[2,1]"
,canvas-keyboard-response,310,237225,0.0-6.0-4.50,66,,,,,make choice,726,1,,,critical,c,t,d,164,240,240,164,232.8713,160.6713,spektor,0.05,w,240,164,164,240,232.8713,160.6713,39360,39360,37415.7294,tc,null,null,null,null,null,null,"[2,1]"
,canvas-keyboard-response,311,237386,0.0-6.0-5.50,66,,,,,clear_screen,null,null,,,critical,c,t,d,164,240,240,164,232.8713,160.6713,spektor,0.05,w,240,164,164,240,232.8713,160.6713,39360,39360,37415.7294,tc,null,null,null,null,null,null,"[2,1]"
,canvas-keyboard-response,312,237587,0.0-6.0-0.51,66,,,,,pre trial waiting period,null,null,,,catch,l,sw,sh,233,205,169,178,214,215,spektor,null,null,null,null,null,null,null,null,null,null,null,,180,200,260,200,36000,52000,"[1,3]"
,canvas-keyboard-response,313,237750,0.0-6.0-1.51,66,,,,,clear_screen,null,null,,,catch,l,sw,sh,233,205,169,178,214,215,spektor,null,null,null,null,null,null,null,null,null,null,null,,180,200,260,200,36000,52000,"[1,3]"
,canvas-keyboard-response,314,239084,0.0-6.0-2.51,66,,,,,rectangles,null,null,,,catch,l,sw,sh,233,205,169,178,214,215,spektor,null,null,null,null,null,null,null,null,null,null,null,,180,200,260,200,36000,52000,"[1,3]"
,canvas-keyboard-response,315,239248,0.0-6.0-3.51,66,,,,,clear_screen,null,null,,,catch,l,sw,sh,233,205,169,178,214,215,spektor,null,null,null,null,null,null,null,null,null,null,null,,180,200,260,200,36000,52000,"[1,3]"
,canvas-keyboard-response,316,239840,0.0-6.0-4.51,66,,,,,make choice,581,1,,,catch,l,sw,sh,233,205,169,178,214,215,spektor,null,null,null,null,null,null,null,null,null,null,null,,180,200,260,200,36000,52000,"[1,3]"
,canvas-keyboard-response,317,239999,0.0-6.0-5.51,66,,,,,clear_screen,null,null,,,catch,l,sw,sh,233,205,169,178,214,215,spektor,null,null,null,null,null,null,null,null,null,null,null,,180,200,260,200,36000,52000,"[1,3]"
,canvas-keyboard-response,318,240200,0.0-6.0-0.52,66,,,,,pre trial waiting period,null,null,,,critical,d,c,t,240,164,164,240,240,164,spektor,0,w,240,164,164,240,240,164,39360,39360,39360,tc,null,null,null,null,null,null,"[3,2]"
,canvas-keyboard-response,319,240362,0.0-6.0-1.52,66,,,,,clear_screen,null,null,,,critical,d,c,t,240,164,164,240,240,164,spektor,0,w,240,164,164,240,240,164,39360,39360,39360,tc,null,null,null,null,null,null,"[3,2]"
,canvas-keyboard-response,320,241701,0.0-6.0-2.52,66,,,,,rectangles,null,null,,,critical,d,c,t,240,164,164,240,240,164,spektor,0,w,240,164,164,240,240,164,39360,39360,39360,tc,null,null,null,null,null,null,"[3,2]"
,canvas-keyboard-response,321,241865,0.0-6.0-3.52,66,,,,,clear_screen,null,null,,,critical,d,c,t,240,164,164,240,240,164,spektor,0,w,240,164,164,240,240,164,39360,39360,39360,tc,null,null,null,null,null,null,"[3,2]"
,canvas-keyboard-response,322,243449,0.0-6.0-4.52,66,,,,,make choice,1572,3,,,critical,d,c,t,240,164,164,240,240,164,spektor,0,w,240,164,164,240,240,164,39360,39360,39360,tc,null,null,null,null,null,null,"[3,2]"
,canvas-keyboard-response,323,243610,0.0-6.0-5.52,66,,,,,clear_screen,null,null,,,critical,d,c,t,240,164,164,240,240,164,spektor,0,w,240,164,164,240,240,164,39360,39360,39360,tc,null,null,null,null,null,null,"[3,2]"
,canvas-keyboard-response,324,243812,0.0-6.0-0.53,66,,,,,pre trial waiting period,null,null,,,critical,d,c,t,158.0083,227.1683,240,164,164,240,trueblood,0.09,h,164,240,240,164,158.0083,227.1683,39360,39360,35894.4834,dc,null,null,null,null,null,null,"[1,2]"
,canvas-keyboard-response,325,243972,0.0-6.0-1.53,66,,,,,clear_screen,null,null,,,critical,d,c,t,158.0083,227.1683,240,164,164,240,trueblood,0.09,h,164,240,240,164,158.0083,227.1683,39360,39360,35894.4834,dc,null,null,null,null,null,null,"[1,2]"
,canvas-keyboard-response,326,245307,0.0-6.0-2.53,66,,,,,rectangles,null,null,,,critical,d,c,t,158.0083,227.1683,240,164,164,240,trueblood,0.09,h,164,240,240,164,158.0083,227.1683,39360,39360,35894.4834,dc,null,null,null,null,null,null,"[1,2]"
,canvas-keyboard-response,327,245471,0.0-6.0-3.53,66,,,,,clear_screen,null,null,,,critical,d,c,t,158.0083,227.1683,240,164,164,240,trueblood,0.09,h,164,240,240,164,158.0083,227.1683,39360,39360,35894.4834,dc,null,null,null,null,null,null,"[1,2]"
,canvas-keyboard-response,328,247401,0.0-6.0-4.53,66,,,,,make choice,1920,2,,,critical,d,c,t,158.0083,227.1683,240,164,164,240,trueblood,0.09,h,164,240,240,164,158.0083,227.1683,39360,39360,35894.4834,dc,null,null,null,null,null,null,"[1,2]"
,canvas-keyboard-response,329,247559,0.0-6.0-5.53,66,,,,,clear_screen,null,null,,,critical,d,c,t,158.0083,227.1683,240,164,164,240,trueblood,0.09,h,164,240,240,164,158.0083,227.1683,39360,39360,35894.4834,dc,null,null,null,null,null,null,"[1,2]"
,canvas-keyboard-response,330,247760,0.0-6.0-0.54,66,,,,,pre trial waiting period,null,null,,,catch,l,sw,sh,189,281,208,209,177,145,trueblood,null,null,null,null,null,null,null,null,null,null,null,,180,200,260,200,36000,52000,"[1,3]"
,canvas-keyboard-response,331,247918,0.0-6.0-1.54,66,,,,,clear_screen,null,null,,,catch,l,sw,sh,189,281,208,209,177,145,trueblood,null,null,null,null,null,null,null,null,null,null,null,,180,200,260,200,36000,52000,"[1,3]"
,canvas-keyboard-response,332,249256,0.0-6.0-2.54,66,,,,,rectangles,null,null,,,catch,l,sw,sh,189,281,208,209,177,145,trueblood,null,null,null,null,null,null,null,null,null,null,null,,180,200,260,200,36000,52000,"[1,3]"
,canvas-keyboard-response,333,249420,0.0-6.0-3.54,66,,,,,clear_screen,null,null,,,catch,l,sw,sh,189,281,208,209,177,145,trueblood,null,null,null,null,null,null,null,null,null,null,null,,180,200,260,200,36000,52000,"[1,3]"
,canvas-keyboard-response,334,251296,0.0-6.0-4.54,66,,,,,make choice,1871,1,,,catch,l,sw,sh,189,281,208,209,177,145,trueblood,null,null,null,null,null,null,null,null,null,null,null,,180,200,260,200,36000,52000,"[1,3]"
,canvas-keyboard-response,335,251455,0.0-6.0-5.54,66,,,,,clear_screen,null,null,,,catch,l,sw,sh,189,281,208,209,177,145,trueblood,null,null,null,null,null,null,null,null,null,null,null,,180,200,260,200,36000,52000,"[1,3]"
,canvas-keyboard-response,336,251657,0.0-6.0-0.55,66,,,,,pre trial waiting period,null,null,,,critical,d,t,c,154.6796,220.0396,164,240,240,164,spektor,0.14,h,164,240,240,164,154.6796,220.0396,39360,39360,34035.6388,td,null,null,null,null,null,null,"[2,1]"
,canvas-keyboard-response,337,251821,0.0-6.0-1.55,66,,,,,clear_screen,null,null,,,critical,d,t,c,154.6796,220.0396,164,240,240,164,spektor,0.14,h,164,240,240,164,154.6796,220.0396,39360,39360,34035.6388,td,null,null,null,null,null,null,"[2,1]"
,canvas-keyboard-response,338,253156,0.0-6.0-2.55,66,,,,,rectangles,null,null,,,critical,d,t,c,154.6796,220.0396,164,240,240,164,spektor,0.14,h,164,240,240,164,154.6796,220.0396,39360,39360,34035.6388,td,null,null,null,null,null,null,"[2,1]"
,canvas-keyboard-response,339,253321,0.0-6.0-3.55,66,,,,,clear_screen,null,null,,,critical,d,t,c,154.6796,220.0396,164,240,240,164,spektor,0.14,h,164,240,240,164,154.6796,220.0396,39360,39360,34035.6388,td,null,null,null,null,null,null,"[2,1]"
,canvas-keyboard-response,340,253928,0.0-6.0-4.55,66,,,,,make choice,594,2,,,critical,d,t,c,154.6796,220.0396,164,240,240,164,spektor,0.14,h,164,240,240,164,154.6796,220.0396,39360,39360,34035.6388,td,null,null,null,null,null,null,"[2,1]"
,canvas-keyboard-response,341,254090,0.0-6.0-5.55,66,,,,,clear_screen,null,null,,,critical,d,t,c,154.6796,220.0396,164,240,240,164,spektor,0.14,h,164,240,240,164,154.6796,220.0396,39360,39360,34035.6388,td,null,null,null,null,null,null,"[2,1]"
,canvas-keyboard-response,342,254290,0.0-6.0-0.56,66,,,,,pre trial waiting period,null,null,,,catch,sw,sh,l,180,200,171,172,228,220,trueblood,null,null,null,null,null,null,null,null,null,null,null,,180,200,260,200,36000,52000,"[2,3]"
,canvas-keyboard-response,343,254451,0.0-6.0-1.56,66,,,,,clear_screen,null,null,,,catch,sw,sh,l,180,200,171,172,228,220,trueblood,null,null,null,null,null,null,null,null,null,null,null,,180,200,260,200,36000,52000,"[2,3]"
,canvas-keyboard-response,344,255786,0.0-6.0-2.56,66,,,,,rectangles,null,null,,,catch,sw,sh,l,180,200,171,172,228,220,trueblood,null,null,null,null,null,null,null,null,null,null,null,,180,200,260,200,36000,52000,"[2,3]"
,canvas-keyboard-response,345,255946,0.0-6.0-3.56,66,,,,,clear_screen,null,null,,,catch,sw,sh,l,180,200,171,172,228,220,trueblood,null,null,null,null,null,null,null,null,null,null,null,,180,200,260,200,36000,52000,"[2,3]"
,canvas-keyboard-response,346,256504,0.0-6.0-4.56,66,,,,,make choice,546,3,,,catch,sw,sh,l,180,200,171,172,228,220,trueblood,null,null,null,null,null,null,null,null,null,null,null,,180,200,260,200,36000,52000,"[2,3]"
,canvas-keyboard-response,347,256666,0.0-6.0-5.56,66,,,,,clear_screen,null,null,,,catch,sw,sh,l,180,200,171,172,228,220,trueblood,null,null,null,null,null,null,null,null,null,null,null,,180,200,260,200,36000,52000,"[2,3]"
,canvas-keyboard-response,348,256867,0.0-6.0-0.57,66,,,,,pre trial waiting period,null,null,,,catch,sw,l,sh,180,200,199,283,180,192,trueblood,null,null,null,null,null,null,null,null,null,null,null,,180,200,260,200,36000,52000,"[2,3]"
,canvas-keyboard-response,349,257030,0.0-6.0-1.57,66,,,,,clear_screen,null,null,,,catch,sw,l,sh,180,200,199,283,180,192,trueblood,null,null,null,null,null,null,null,null,null,null,null,,180,200,260,200,36000,52000,"[2,3]"
,canvas-keyboard-response,350,258366,0.0-6.0-2.57,66,,,,,rectangles,null,null,,,catch,sw,l,sh,180,200,199,283,180,192,trueblood,null,null,null,null,null,null,null,null,null,null,null,,180,200,260,200,36000,52000,"[2,3]"
,canvas-keyboard-response,351,258529,0.0-6.0-3.57,66,,,,,clear_screen,null,null,,,catch,sw,l,sh,180,200,199,283,180,192,trueblood,null,null,null,null,null,null,null,null,null,null,null,,180,200,260,200,36000,52000,"[2,3]"
,canvas-keyboard-response,352,259593,0.0-6.0-4.57,66,,,,,make choice,1049,2,,,catch,sw,l,sh,180,200,199,283,180,192,trueblood,null,null,null,null,null,null,null,null,null,null,null,,180,200,260,200,36000,52000,"[2,3]"
,canvas-keyboard-response,353,259753,0.0-6.0-5.57,66,,,,,clear_screen,null,null,,,catch,sw,l,sh,180,200,199,283,180,192,trueblood,null,null,null,null,null,null,null,null,null,null,null,,180,200,260,200,36000,52000,"[2,3]"
,canvas-keyboard-response,354,259955,0.0-6.0-0.58,66,,,,,pre trial waiting period,null,null,,,critical,d,c,t,232.8713,160.6713,164,240,240,164,trueblood,0.05,w,240,164,164,240,232.8713,160.6713,39360,39360,37415.7294,td,null,null,null,null,null,null,"[3,1]"
,canvas-keyboard-response,355,260117,0.0-6.0-1.58,66,,,,,clear_screen,null,null,,,critical,d,c,t,232.8713,160.6713,164,240,240,164,trueblood,0.05,w,240,164,164,240,232.8713,160.6713,39360,39360,37415.7294,td,null,null,null,null,null,null,"[3,1]"
,canvas-keyboard-response,356,261457,0.0-6.0-2.58,66,,,,,rectangles,null,null,,,critical,d,c,t,232.8713,160.6713,164,240,240,164,trueblood,0.05,w,240,164,164,240,232.8713,160.6713,39360,39360,37415.7294,td,null,null,null,null,null,null,"[3,1]"
,canvas-keyboard-response,357,261617,0.0-6.0-3.58,66,,,,,clear_screen,null,null,,,critical,d,c,t,232.8713,160.6713,164,240,240,164,trueblood,0.05,w,240,164,164,240,232.8713,160.6713,39360,39360,37415.7294,td,null,null,null,null,null,null,"[3,1]"
,canvas-keyboard-response,358,264953,0.0-6.0-4.58,66,,,,,make choice,3324,1,,,critical,d,c,t,232.8713,160.6713,164,240,240,164,trueblood,0.05,w,240,164,164,240,232.8713,160.6713,39360,39360,37415.7294,td,null,null,null,null,null,null,"[3,1]"
,canvas-keyboard-response,359,265114,0.0-6.0-5.58,66,,,,,clear_screen,null,null,,,critical,d,c,t,232.8713,160.6713,164,240,240,164,trueblood,0.05,w,240,164,164,240,232.8713,160.6713,39360,39360,37415.7294,td,null,null,null,null,null,null,"[3,1]"
,canvas-keyboard-response,360,265315,0.0-6.0-0.59,66,,,,,pre trial waiting period,null,null,,,catch,l,sw,sh,218,236,196,163,232,156,spektor,null,null,null,null,null,null,null,null,null,null,null,,180,200,260,200,36000,52000,"[1,2]"
,canvas-keyboard-response,361,265475,0.0-6.0-1.59,66,,,,,clear_screen,null,null,,,catch,l,sw,sh,218,236,196,163,232,156,spektor,null,null,null,null,null,null,null,null,null,null,null,,180,200,260,200,36000,52000,"[1,2]"
,canvas-keyboard-response,362,266813,0.0-6.0-2.59,66,,,,,rectangles,null,null,,,catch,l,sw,sh,218,236,196,163,232,156,spektor,null,null,null,null,null,null,null,null,null,null,null,,180,200,260,200,36000,52000,"[1,2]"
,canvas-keyboard-response,363,266977,0.0-6.0-3.59,66,,,,,clear_screen,null,null,,,catch,l,sw,sh,218,236,196,163,232,156,spektor,null,null,null,null,null,null,null,null,null,null,null,,180,200,260,200,36000,52000,"[1,2]"
,canvas-keyboard-response,364,267769,0.0-6.0-4.59,66,,,,,make choice,781,1,,,catch,l,sw,sh,218,236,196,163,232,156,spektor,null,null,null,null,null,null,null,null,null,null,null,,180,200,260,200,36000,52000,"[1,2]"
,canvas-keyboard-response,365,267930,0.0-6.0-5.59,66,,,,,clear_screen,null,null,,,catch,l,sw,sh,218,236,196,163,232,156,spektor,null,null,null,null,null,null,null,null,null,null,null,,180,200,260,200,36000,52000,"[1,2]"
,canvas-keyboard-response,366,268131,0.0-6.0-0.60,66,,,,,pre trial waiting period,null,null,,,critical,t,d,c,240,164,237.1485,162.6685,164,240,spektor,0.02,w,240,164,164,240,237.1485,162.6685,39360,39360,38576.5967,td,null,null,null,null,null,null,"[1,2]"
,canvas-keyboard-response,367,268291,0.0-6.0-1.60,66,,,,,clear_screen,null,null,,,critical,t,d,c,240,164,237.1485,162.6685,164,240,spektor,0.02,w,240,164,164,240,237.1485,162.6685,39360,39360,38576.5967,td,null,null,null,null,null,null,"[1,2]"
,canvas-keyboard-response,368,269626,0.0-6.0-2.60,66,,,,,rectangles,null,null,,,critical,t,d,c,240,164,237.1485,162.6685,164,240,spektor,0.02,w,240,164,164,240,237.1485,162.6685,39360,39360,38576.5967,td,null,null,null,null,null,null,"[1,2]"
,canvas-keyboard-response,369,269789,0.0-6.0-3.60,66,,,,,clear_screen,null,null,,,critical,t,d,c,240,164,237.1485,162.6685,164,240,spektor,0.02,w,240,164,164,240,237.1485,162.6685,39360,39360,38576.5967,td,null,null,null,null,null,null,"[1,2]"
,canvas-keyboard-response,370,271056,0.0-6.0-4.60,66,,,,,make choice,1257,2,,,critical,t,d,c,240,164,237.1485,162.6685,164,240,spektor,0.02,w,240,164,164,240,237.1485,162.6685,39360,39360,38576.5967,td,null,null,null,null,null,null,"[1,2]"
,canvas-keyboard-response,371,271218,0.0-6.0-5.60,66,,,,,clear_screen,null,null,,,critical,t,d,c,240,164,237.1485,162.6685,164,240,spektor,0.02,w,240,164,164,240,237.1485,162.6685,39360,39360,38576.5967,td,null,null,null,null,null,null,"[1,2]"
,canvas-keyboard-response,372,271419,0.0-6.0-0.61,66,,,,,pre trial waiting period,null,null,,,critical,t,c,d,164,240,240,164,154.6796,220.0396,trueblood,0.14,h,164,240,240,164,154.6796,220.0396,39360,39360,34035.6388,dc,null,null,null,null,null,null,"[3,2]"
,canvas-keyboard-response,373,271580,0.0-6.0-1.61,66,,,,,clear_screen,null,null,,,critical,t,c,d,164,240,240,164,154.6796,220.0396,trueblood,0.14,h,164,240,240,164,154.6796,220.0396,39360,39360,34035.6388,dc,null,null,null,null,null,null,"[3,2]"
,canvas-keyboard-response,374,272916,0.0-6.0-2.61,66,,,,,rectangles,null,null,,,critical,t,c,d,164,240,240,164,154.6796,220.0396,trueblood,0.14,h,164,240,240,164,154.6796,220.0396,39360,39360,34035.6388,dc,null,null,null,null,null,null,"[3,2]"
,canvas-keyboard-response,375,273075,0.0-6.0-3.61,66,,,,,clear_screen,null,null,,,critical,t,c,d,164,240,240,164,154.6796,220.0396,trueblood,0.14,h,164,240,240,164,154.6796,220.0396,39360,39360,34035.6388,dc,null,null,null,null,null,null,"[3,2]"
,canvas-keyboard-response,376,276072,0.0-6.0-4.61,66,,,,,make choice,2987,2,,,critical,t,c,d,164,240,240,164,154.6796,220.0396,trueblood,0.14,h,164,240,240,164,154.6796,220.0396,39360,39360,34035.6388,dc,null,null,null,null,null,null,"[3,2]"
,canvas-keyboard-response,377,276083,0.0-6.0-5.61,66,,,,,clear_screen,0,3,,,critical,t,c,d,164,240,240,164,154.6796,220.0396,trueblood,0.14,h,164,240,240,164,154.6796,220.0396,39360,39360,34035.6388,dc,null,null,null,null,null,null,"[3,2]"
,canvas-keyboard-response,378,276284,0.0-6.0-0.62,66,,,,,pre trial waiting period,null,null,,,critical,c,t,d,164,240,240,164,227.1683,158.0083,spektor,0.09,w,240,164,164,240,227.1683,158.0083,39360,39360,35894.4834,dc,null,null,null,null,null,null,"[3,1]"
,canvas-keyboard-response,379,276444,0.0-6.0-1.62,66,,,,,clear_screen,null,null,,,critical,c,t,d,164,240,240,164,227.1683,158.0083,spektor,0.09,w,240,164,164,240,227.1683,158.0083,39360,39360,35894.4834,dc,null,null,null,null,null,null,"[3,1]"
,canvas-keyboard-response,380,277782,0.0-6.0-2.62,66,,,,,rectangles,null,null,,,critical,c,t,d,164,240,240,164,227.1683,158.0083,spektor,0.09,w,240,164,164,240,227.1683,158.0083,39360,39360,35894.4834,dc,null,null,null,null,null,null,"[3,1]"
,canvas-keyboard-response,381,277942,0.0-6.0-3.62,66,,,,,clear_screen,null,null,,,critical,c,t,d,164,240,240,164,227.1683,158.0083,spektor,0.09,w,240,164,164,240,227.1683,158.0083,39360,39360,35894.4834,dc,null,null,null,null,null,null,"[3,1]"
,canvas-keyboard-response,382,280641,0.0-6.0-4.62,66,,,,,make choice,2686,1,,,critical,c,t,d,164,240,240,164,227.1683,158.0083,spektor,0.09,w,240,164,164,240,227.1683,158.0083,39360,39360,35894.4834,dc,null,null,null,null,null,null,"[3,1]"
,canvas-keyboard-response,383,280799,0.0-6.0-5.62,66,,,,,clear_screen,null,null,,,critical,c,t,d,164,240,240,164,227.1683,158.0083,spektor,0.09,w,240,164,164,240,227.1683,158.0083,39360,39360,35894.4834,dc,null,null,null,null,null,null,"[3,1]"
,canvas-keyboard-response,384,281000,0.0-6.0-0.63,66,,,,,pre trial waiting period,null,null,,,catch,sh,l,sw,167,186,188,238,142,220,spektor,null,null,null,null,null,null,null,null,null,null,null,,180,200,260,200,36000,52000,"[2,3]"
,canvas-keyboard-response,385,281165,0.0-6.0-1.63,66,,,,,clear_screen,null,null,,,catch,sh,l,sw,167,186,188,238,142,220,spektor,null,null,null,null,null,null,null,null,null,null,null,,180,200,260,200,36000,52000,"[2,3]"
,canvas-keyboard-response,386,282504,0.0-6.0-2.63,66,,,,,rectangles,null,null,,,catch,sh,l,sw,167,186,188,238,142,220,spektor,null,null,null,null,null,null,null,null,null,null,null,,180,200,260,200,36000,52000,"[2,3]"
,canvas-keyboard-response,387,282664,0.0-6.0-3.63,66,,,,,clear_screen,null,null,,,catch,sh,l,sw,167,186,188,238,142,220,spektor,null,null,null,null,null,null,null,null,null,null,null,,180,200,260,200,36000,52000,"[2,3]"
,canvas-keyboard-response,388,282959,0.0-6.0-4.63,66,,,,,make choice,289,2,,,catch,sh,l,sw,167,186,188,238,142,220,spektor,null,null,null,null,null,null,null,null,null,null,null,,180,200,260,200,36000,52000,"[2,3]"
,canvas-keyboard-response,389,283118,0.0-6.0-5.63,66,,,,,clear_screen,null,null,,,catch,sh,l,sw,167,186,188,238,142,220,spektor,null,null,null,null,null,null,null,null,null,null,null,,180,200,260,200,36000,52000,"[2,3]"
,canvas-keyboard-response,390,283319,0.0-6.0-0.64,66,,,,,pre trial waiting period,null,null,,,catch,sh,sw,l,178,143,156,199,209,292,spektor,null,null,null,null,null,null,null,null,null,null,null,,180,200,260,200,36000,52000,"[1,3]"
,canvas-keyboard-response,391,283480,0.0-6.0-1.64,66,,,,,clear_screen,null,null,,,catch,sh,sw,l,178,143,156,199,209,292,spektor,null,null,null,null,null,null,null,null,null,null,null,,180,200,260,200,36000,52000,"[1,3]"
,canvas-keyboard-response,392,284817,0.0-6.0-2.64,66,,,,,rectangles,null,null,,,catch,sh,sw,l,178,143,156,199,209,292,spektor,null,null,null,null,null,null,null,null,null,null,null,,180,200,260,200,36000,52000,"[1,3]"
,canvas-keyboard-response,393,284978,0.0-6.0-3.64,66,,,,,clear_screen,null,null,,,catch,sh,sw,l,178,143,156,199,209,292,spektor,null,null,null,null,null,null,null,null,null,null,null,,180,200,260,200,36000,52000,"[1,3]"
,canvas-keyboard-response,394,285537,0.0-6.0-4.64,66,,,,,make choice,550,3,,,catch,sh,sw,l,178,143,156,199,209,292,spektor,null,null,null,null,null,null,null,null,null,null,null,,180,200,260,200,36000,52000,"[1,3]"
,canvas-keyboard-response,395,285695,0.0-6.0-5.64,66,,,,,clear_screen,null,null,,,catch,sh,sw,l,178,143,156,199,209,292,spektor,null,null,null,null,null,null,null,null,null,null,null,,180,200,260,200,36000,52000,"[1,3]"
,canvas-keyboard-response,396,285896,0.0-6.0-0.65,66,,,,,pre trial waiting period,null,null,,,catch,l,sh,sw,217,272,188,193,197,196,trueblood,null,null,null,null,null,null,null,null,null,null,null,,180,200,260,200,36000,52000,"[1,3]"
,canvas-keyboard-response,397,286055,0.0-6.0-1.65,66,,,,,clear_screen,null,null,,,catch,l,sh,sw,217,272,188,193,197,196,trueblood,null,null,null,null,null,null,null,null,null,null,null,,180,200,260,200,36000,52000,"[1,3]"
,canvas-keyboard-response,398,287396,0.0-6.0-2.65,66,,,,,rectangles,null,null,,,catch,l,sh,sw,217,272,188,193,197,196,trueblood,null,null,null,null,null,null,null,null,null,null,null,,180,200,260,200,36000,52000,"[1,3]"
,canvas-keyboard-response,399,287557,0.0-6.0-3.65,66,,,,,clear_screen,null,null,,,catch,l,sh,sw,217,272,188,193,197,196,trueblood,null,null,null,null,null,null,null,null,null,null,null,,180,200,260,200,36000,52000,"[1,3]"
,canvas-keyboard-response,400,288128,0.0-6.0-4.65,66,,,,,make choice,562,1,,,catch,l,sh,sw,217,272,188,193,197,196,trueblood,null,null,null,null,null,null,null,null,null,null,null,,180,200,260,200,36000,52000,"[1,3]"
,canvas-keyboard-response,401,288288,0.0-6.0-5.65,66,,,,,clear_screen,null,null,,,catch,l,sh,sw,217,272,188,193,197,196,trueblood,null,null,null,null,null,null,null,null,null,null,null,,180,200,260,200,36000,52000,"[1,3]"
,canvas-keyboard-response,402,288489,0.0-6.0-0.66,66,,,,,pre trial waiting period,null,null,,,catch,l,sh,sw,218,283,227,213,199,200,trueblood,null,null,null,null,null,null,null,null,null,null,null,,180,200,260,200,36000,52000,"[1,3]"
,canvas-keyboard-response,403,288649,0.0-6.0-1.66,66,,,,,clear_screen,null,null,,,catch,l,sh,sw,218,283,227,213,199,200,trueblood,null,null,null,null,null,null,null,null,null,null,null,,180,200,260,200,36000,52000,"[1,3]"
,canvas-keyboard-response,404,289984,0.0-6.0-2.66,66,,,,,rectangles,null,null,,,catch,l,sh,sw,218,283,227,213,199,200,trueblood,null,null,null,null,null,null,null,null,null,null,null,,180,200,260,200,36000,52000,"[1,3]"
,canvas-keyboard-response,405,290145,0.0-6.0-3.66,66,,,,,clear_screen,null,null,,,catch,l,sh,sw,218,283,227,213,199,200,trueblood,null,null,null,null,null,null,null,null,null,null,null,,180,200,260,200,36000,52000,"[1,3]"
,canvas-keyboard-response,406,290665,0.0-6.0-4.66,66,,,,,make choice,511,1,,,catch,l,sh,sw,218,283,227,213,199,200,trueblood,null,null,null,null,null,null,null,null,null,null,null,,180,200,260,200,36000,52000,"[1,3]"
,canvas-keyboard-response,407,290824,0.0-6.0-5.66,66,,,,,clear_screen,null,null,,,catch,l,sh,sw,218,283,227,213,199,200,trueblood,null,null,null,null,null,null,null,null,null,null,null,,180,200,260,200,36000,52000,"[1,3]"
,canvas-keyboard-response,408,291025,0.0-6.0-0.67,66,,,,,pre trial waiting period,null,null,,,critical,c,d,t,240,164,162.6685,237.1485,164,240,trueblood,0.02,h,164,240,240,164,162.6685,237.1485,39360,39360,38576.5967,tc,null,null,null,null,null,null,"[3,1]"
,canvas-keyboard-response,409,291185,0.0-6.0-1.67,66,,,,,clear_screen,null,null,,,critical,c,d,t,240,164,162.6685,237.1485,164,240,trueblood,0.02,h,164,240,240,164,162.6685,237.1485,39360,39360,38576.5967,tc,null,null,null,null,null,null,"[3,1]"
,canvas-keyboard-response,410,292525,0.0-6.0-2.67,66,,,,,rectangles,null,null,,,critical,c,d,t,240,164,162.6685,237.1485,164,240,trueblood,0.02,h,164,240,240,164,162.6685,237.1485,39360,39360,38576.5967,tc,null,null,null,null,null,null,"[3,1]"
,canvas-keyboard-response,411,292686,0.0-6.0-3.67,66,,,,,clear_screen,null,null,,,critical,c,d,t,240,164,162.6685,237.1485,164,240,trueblood,0.02,h,164,240,240,164,162.6685,237.1485,39360,39360,38576.5967,tc,null,null,null,null,null,null,"[3,1]"
,canvas-keyboard-response,412,294537,0.0-6.0-4.67,66,,,,,make choice,1843,1,,,critical,c,d,t,240,164,162.6685,237.1485,164,240,trueblood,0.02,h,164,240,240,164,162.6685,237.1485,39360,39360,38576.5967,tc,null,null,null,null,null,null,"[3,1]"
,canvas-keyboard-response,413,294696,0.0-6.0-5.67,66,,,,,clear_screen,null,null,,,critical,c,d,t,240,164,162.6685,237.1485,164,240,trueblood,0.02,h,164,240,240,164,162.6685,237.1485,39360,39360,38576.5967,tc,null,null,null,null,null,null,"[3,1]"
,canvas-keyboard-response,414,294896,0.0-6.0-0.68,66,,,,,pre trial waiting period,null,null,,,critical,d,c,t,232.8713,160.6713,164,240,240,164,trueblood,0.05,w,240,164,164,240,232.8713,160.6713,39360,39360,37415.7294,tc,null,null,null,null,null,null,"[3,2]"
,canvas-keyboard-response,415,295058,0.0-6.0-1.68,66,,,,,clear_screen,null,null,,,critical,d,c,t,232.8713,160.6713,164,240,240,164,trueblood,0.05,w,240,164,164,240,232.8713,160.6713,39360,39360,37415.7294,tc,null,null,null,null,null,null,"[3,2]"
,canvas-keyboard-response,416,296397,0.0-6.0-2.68,66,,,,,rectangles,null,null,,,critical,d,c,t,232.8713,160.6713,164,240,240,164,trueblood,0.05,w,240,164,164,240,232.8713,160.6713,39360,39360,37415.7294,tc,null,null,null,null,null,null,"[3,2]"
,canvas-keyboard-response,417,296558,0.0-6.0-3.68,66,,,,,clear_screen,null,null,,,critical,d,c,t,232.8713,160.6713,164,240,240,164,trueblood,0.05,w,240,164,164,240,232.8713,160.6713,39360,39360,37415.7294,tc,null,null,null,null,null,null,"[3,2]"
,canvas-keyboard-response,418,297256,0.0-6.0-4.68,66,,,,,make choice,686,3,,,critical,d,c,t,232.8713,160.6713,164,240,240,164,trueblood,0.05,w,240,164,164,240,232.8713,160.6713,39360,39360,37415.7294,tc,null,null,null,null,null,null,"[3,2]"
,canvas-keyboard-response,419,297418,0.0-6.0-5.68,66,,,,,clear_screen,null,null,,,critical,d,c,t,232.8713,160.6713,164,240,240,164,trueblood,0.05,w,240,164,164,240,232.8713,160.6713,39360,39360,37415.7294,tc,null,null,null,null,null,null,"[3,2]"
,canvas-keyboard-response,420,297619,0.0-6.0-0.69,66,,,,,pre trial waiting period,null,null,,,critical,d,t,c,237.1485,162.6685,240,164,164,240,trueblood,0.02,w,240,164,164,240,237.1485,162.6685,39360,39360,38576.5967,tc,null,null,null,null,null,null,"[2,3]"
,canvas-keyboard-response,421,297779,0.0-6.0-1.69,66,,,,,clear_screen,null,null,,,critical,d,t,c,237.1485,162.6685,240,164,164,240,trueblood,0.02,w,240,164,164,240,237.1485,162.6685,39360,39360,38576.5967,tc,null,null,null,null,null,null,"[2,3]"
,canvas-keyboard-response,422,299114,0.0-6.0-2.69,66,,,,,rectangles,null,null,,,critical,d,t,c,237.1485,162.6685,240,164,164,240,trueblood,0.02,w,240,164,164,240,237.1485,162.6685,39360,39360,38576.5967,tc,null,null,null,null,null,null,"[2,3]"
,canvas-keyboard-response,423,299278,0.0-6.0-3.69,66,,,,,clear_screen,null,null,,,critical,d,t,c,237.1485,162.6685,240,164,164,240,trueblood,0.02,w,240,164,164,240,237.1485,162.6685,39360,39360,38576.5967,tc,null,null,null,null,null,null,"[2,3]"
,canvas-keyboard-response,424,303073,0.0-6.0-4.69,66,,,,,make choice,3782,2,,,critical,d,t,c,237.1485,162.6685,240,164,164,240,trueblood,0.02,w,240,164,164,240,237.1485,162.6685,39360,39360,38576.5967,tc,null,null,null,null,null,null,"[2,3]"
