"success","trial_type","trial_index","time_elapsed","internal_node_id","sub_n","timeout","failed_images","failed_audio","failed_video","screen_id","rt","response","stimulus","view_history","trial","r1","r2","r3","w1","h1","w2","h2","w3","h3","display","tdd","tdo","tw","th","cw","ch","dw","dh","ta","ca","da","probe","csls","csss","clls","clss","sa","la","probe_rects"
"true","fullscreen","0","24094","0.0-0.0","2","","","","","","","","","","","","","","","","","","","","","","","","","","","","","","","","","","","","","","",""
"true","preload","1","24119","0.0-1.0","2","false","[]","[]","[]","img preload","","","","","","","","","","","","","","","","","","","","","","","","","","","","","","","","","",""
"","survey-html-form","2","52521","0.0-2.0","2","","","","","enter-sub-number","28389","{""response"":""2""}","","","","","","","","","","","","","","","","","","","","","","","","","","","","","","","",""
"","image-button-response","3","80211","0.0-3.0","2","","","","","","27578","0","consent.png","","","","","","","","","","","","","","","","","","","","","","","","","","","","","","",""
"","html-button-response","4","85331","0.0-4.0","2","","","","","intro mssg","5116","0","<div style= ""font-size:25px;"" <p> <strong> Welcome! </strong><br> <p style=""color:#8B0000; font-size:25px;""><strong> Please do NOT exit full screen until you are done with the experiment. </strong> </p><p style=""font-size:25px;color:#8B0000;""> <strong> Your data will be lost <br> if you try to go back or refresh the page after the experiment starts. Feel free to click ""previous"" during the instructions, however.</strong> </p><br><p> <strong> Thanks in advance for your contribution to our research! </strong></p>","","","","","","","","","","","","","","","","","","","","","","","","","","","","","","",""
"","instructions","5","151146","0.0-5.0","2","","","","","instructions","65811","","","[{""page_index"":0,""viewing_time"":5780},{""page_index"":1,""viewing_time"":10639},{""page_index"":2,""viewing_time"":4433},{""page_index"":3,""viewing_time"":6751},{""page_index"":4,""viewing_time"":2680},{""page_index"":3,""viewing_time"":8208},{""page_index"":4,""viewing_time"":6095},{""page_index"":5,""viewing_time"":3786},{""page_index"":6,""viewing_time"":3599},{""page_index"":5,""viewing_time"":439},{""page_index"":4,""viewing_time"":4353},{""page_index"":5,""viewing_time"":2727},{""page_index"":6,""viewing_time"":1273},{""page_index"":7,""viewing_time"":5048}]","","","","","","","","","","","","","","","","","","","","","","","","","","","","","",""
"","canvas-keyboard-response","6","151352","0.0-6.0-0.0","2","","","","","pre trial waiting period","null","null","","","critical","t","d","c","164","240","162.6685","237.1485","240","164","trueblood","0.02","h","164","240","240","164","162.6685","237.1485","39360","39360","38576.5967","dc","null","null","null","null","null","null","[2,3]"
"","canvas-keyboard-response","7","151515","0.0-6.0-1.0","2","","","","","clear_screen","null","null","","","critical","t","d","c","164","240","162.6685","237.1485","240","164","trueblood","0.02","h","164","240","240","164","162.6685","237.1485","39360","39360","38576.5967","dc","null","null","null","null","null","null","[2,3]"
"","canvas-keyboard-response","8","152854","0.0-6.0-2.0","2","","","","","rectangles","null","null","","","critical","t","d","c","164","240","162.6685","237.1485","240","164","trueblood","0.02","h","164","240","240","164","162.6685","237.1485","39360","39360","38576.5967","dc","null","null","null","null","null","null","[2,3]"
"","canvas-keyboard-response","9","153014","0.0-6.0-3.0","2","","","","","clear_screen","null","null","","","critical","t","d","c","164","240","162.6685","237.1485","240","164","trueblood","0.02","h","164","240","240","164","162.6685","237.1485","39360","39360","38576.5967","dc","null","null","null","null","null","null","[2,3]"
"","canvas-keyboard-response","10","157929","0.0-6.0-4.0","2","","","","","make choice","4902","2","","","critical","t","d","c","164","240","162.6685","237.1485","240","164","trueblood","0.02","h","164","240","240","164","162.6685","237.1485","39360","39360","38576.5967","dc","null","null","null","null","null","null","[2,3]"
"","canvas-keyboard-response","11","158089","0.0-6.0-5.0","2","","","","","clear_screen","null","null","","","critical","t","d","c","164","240","162.6685","237.1485","240","164","trueblood","0.02","h","164","240","240","164","162.6685","237.1485","39360","39360","38576.5967","dc","null","null","null","null","null","null","[2,3]"
"","canvas-keyboard-response","12","158290","0.0-6.0-0.1","2","","","","","pre trial waiting period","null","null","","","critical","t","d","c","240","164","220.0396","154.6796","164","240","trueblood","0.14","w","240","164","164","240","220.0396","154.6796","39360","39360","34035.6388","td","null","null","null","null","null","null","[1,2]"
"","canvas-keyboard-response","13","158450","0.0-6.0-1.1","2","","","","","clear_screen","null","null","","","critical","t","d","c","240","164","220.0396","154.6796","164","240","trueblood","0.14","w","240","164","164","240","220.0396","154.6796","39360","39360","34035.6388","td","null","null","null","null","null","null","[1,2]"
"","canvas-keyboard-response","14","159786","0.0-6.0-2.1","2","","","","","rectangles","null","null","","","critical","t","d","c","240","164","220.0396","154.6796","164","240","trueblood","0.14","w","240","164","164","240","220.0396","154.6796","39360","39360","34035.6388","td","null","null","null","null","null","null","[1,2]"
"","canvas-keyboard-response","15","159945","0.0-6.0-3.1","2","","","","","clear_screen","null","null","","","critical","t","d","c","240","164","220.0396","154.6796","164","240","trueblood","0.14","w","240","164","164","240","220.0396","154.6796","39360","39360","34035.6388","td","null","null","null","null","null","null","[1,2]"
"","canvas-keyboard-response","16","161952","0.0-6.0-4.1","2","","","","","make choice","1997","1","","","critical","t","d","c","240","164","220.0396","154.6796","164","240","trueblood","0.14","w","240","164","164","240","220.0396","154.6796","39360","39360","34035.6388","td","null","null","null","null","null","null","[1,2]"
"","canvas-keyboard-response","17","162115","0.0-6.0-5.1","2","","","","","clear_screen","null","null","","","critical","t","d","c","240","164","220.0396","154.6796","164","240","trueblood","0.14","w","240","164","164","240","220.0396","154.6796","39360","39360","34035.6388","td","null","null","null","null","null","null","[1,2]"
"","canvas-keyboard-response","18","162317","0.0-6.0-0.2","2","","","","","pre trial waiting period","null","null","","","critical","d","c","t","227.1683","158.0083","164","240","240","164","trueblood","0.09","w","240","164","164","240","227.1683","158.0083","39360","39360","35894.4834","tc","null","null","null","null","null","null","[3,2]"
"","canvas-keyboard-response","19","162476","0.0-6.0-1.2","2","","","","","clear_screen","null","null","","","critical","d","c","t","227.1683","158.0083","164","240","240","164","trueblood","0.09","w","240","164","164","240","227.1683","158.0083","39360","39360","35894.4834","tc","null","null","null","null","null","null","[3,2]"
"","canvas-keyboard-response","20","163812","0.0-6.0-2.2","2","","","","","rectangles","null","null","","","critical","d","c","t","227.1683","158.0083","164","240","240","164","trueblood","0.09","w","240","164","164","240","227.1683","158.0083","39360","39360","35894.4834","tc","null","null","null","null","null","null","[3,2]"
"","canvas-keyboard-response","21","163971","0.0-6.0-3.2","2","","","","","clear_screen","null","null","","","critical","d","c","t","227.1683","158.0083","164","240","240","164","trueblood","0.09","w","240","164","164","240","227.1683","158.0083","39360","39360","35894.4834","tc","null","null","null","null","null","null","[3,2]"
"","canvas-keyboard-response","22","168488","0.0-6.0-4.2","2","","","","","make choice","4508","3","","","critical","d","c","t","227.1683","158.0083","164","240","240","164","trueblood","0.09","w","240","164","164","240","227.1683","158.0083","39360","39360","35894.4834","tc","null","null","null","null","null","null","[3,2]"
"","canvas-keyboard-response","23","168647","0.0-6.0-5.2","2","","","","","clear_screen","null","null","","","critical","d","c","t","227.1683","158.0083","164","240","240","164","trueblood","0.09","w","240","164","164","240","227.1683","158.0083","39360","39360","35894.4834","tc","null","null","null","null","null","null","[3,2]"
"","canvas-keyboard-response","24","168848","0.0-6.0-0.3","2","","","","","pre trial waiting period","null","null","","","critical","c","d","t","164","240","237.1485","162.6685","240","164","trueblood","0.02","w","240","164","164","240","237.1485","162.6685","39360","39360","38576.5967","dc","null","null","null","null","null","null","[2,1]"
"","canvas-keyboard-response","25","169008","0.0-6.0-1.3","2","","","","","clear_screen","null","null","","","critical","c","d","t","164","240","237.1485","162.6685","240","164","trueblood","0.02","w","240","164","164","240","237.1485","162.6685","39360","39360","38576.5967","dc","null","null","null","null","null","null","[2,1]"
"","canvas-keyboard-response","26","170343","0.0-6.0-2.3","2","","","","","rectangles","null","null","","","critical","c","d","t","164","240","237.1485","162.6685","240","164","trueblood","0.02","w","240","164","164","240","237.1485","162.6685","39360","39360","38576.5967","dc","null","null","null","null","null","null","[2,1]"
"","canvas-keyboard-response","27","170503","0.0-6.0-3.3","2","","","","","clear_screen","null","null","","","critical","c","d","t","164","240","237.1485","162.6685","240","164","trueblood","0.02","w","240","164","164","240","237.1485","162.6685","39360","39360","38576.5967","dc","null","null","null","null","null","null","[2,1]"
"","canvas-keyboard-response","28","173985","0.0-6.0-4.3","2","","","","","make choice","3473","1","","","critical","c","d","t","164","240","237.1485","162.6685","240","164","trueblood","0.02","w","240","164","164","240","237.1485","162.6685","39360","39360","38576.5967","dc","null","null","null","null","null","null","[2,1]"
"","canvas-keyboard-response","29","174145","0.0-6.0-5.3","2","","","","","clear_screen","null","null","","","critical","c","d","t","164","240","237.1485","162.6685","240","164","trueblood","0.02","w","240","164","164","240","237.1485","162.6685","39360","39360","38576.5967","dc","null","null","null","null","null","null","[2,1]"
"","canvas-keyboard-response","30","174346","0.0-6.0-0.4","2","","","","","pre trial waiting period","null","null","","","critical","t","c","d","164","240","240","164","164","240","spektor","0","h","164","240","240","164","164","240","39360","39360","39360","tc","null","null","null","null","null","null","[1,2]"
"","canvas-keyboard-response","31","174505","0.0-6.0-1.4","2","","","","","clear_screen","null","null","","","critical","t","c","d","164","240","240","164","164","240","spektor","0","h","164","240","240","164","164","240","39360","39360","39360","tc","null","null","null","null","null","null","[1,2]"
"","canvas-keyboard-response","32","175843","0.0-6.0-2.4","2","","","","","rectangles","null","null","","","critical","t","c","d","164","240","240","164","164","240","spektor","0","h","164","240","240","164","164","240","39360","39360","39360","tc","null","null","null","null","null","null","[1,2]"
"","canvas-keyboard-response","33","176001","0.0-6.0-3.4","2","","","","","clear_screen","null","null","","","critical","t","c","d","164","240","240","164","164","240","spektor","0","h","164","240","240","164","164","240","39360","39360","39360","tc","null","null","null","null","null","null","[1,2]"
"","canvas-keyboard-response","34","177536","0.0-6.0-4.4","2","","","","","make choice","1527","2","","","critical","t","c","d","164","240","240","164","164","240","spektor","0","h","164","240","240","164","164","240","39360","39360","39360","tc","null","null","null","null","null","null","[1,2]"
"","canvas-keyboard-response","35","177695","0.0-6.0-5.4","2","","","","","clear_screen","null","null","","","critical","t","c","d","164","240","240","164","164","240","spektor","0","h","164","240","240","164","164","240","39360","39360","39360","tc","null","null","null","null","null","null","[1,2]"
"","canvas-keyboard-response","36","177897","0.0-6.0-0.5","2","","","","","pre trial waiting period","null","null","","","critical","d","c","t","160.6713","232.8713","240","164","164","240","spektor","0.05","h","164","240","240","164","160.6713","232.8713","39360","39360","37415.7294","tc","null","null","null","null","null","null","[3,2]"
"","canvas-keyboard-response","37","178055","0.0-6.0-1.5","2","","","","","clear_screen","null","null","","","critical","d","c","t","160.6713","232.8713","240","164","164","240","spektor","0.05","h","164","240","240","164","160.6713","232.8713","39360","39360","37415.7294","tc","null","null","null","null","null","null","[3,2]"
"","canvas-keyboard-response","38","179391","0.0-6.0-2.5","2","","","","","rectangles","null","null","","","critical","d","c","t","160.6713","232.8713","240","164","164","240","spektor","0.05","h","164","240","240","164","160.6713","232.8713","39360","39360","37415.7294","tc","null","null","null","null","null","null","[3,2]"
"","canvas-keyboard-response","39","179549","0.0-6.0-3.5","2","","","","","clear_screen","null","null","","","critical","d","c","t","160.6713","232.8713","240","164","164","240","spektor","0.05","h","164","240","240","164","160.6713","232.8713","39360","39360","37415.7294","tc","null","null","null","null","null","null","[3,2]"
"","canvas-keyboard-response","40","183400","0.0-6.0-4.5","2","","","","","make choice","3840","3","","","critical","d","c","t","160.6713","232.8713","240","164","164","240","spektor","0.05","h","164","240","240","164","160.6713","232.8713","39360","39360","37415.7294","tc","null","null","null","null","null","null","[3,2]"
"","canvas-keyboard-response","41","183559","0.0-6.0-5.5","2","","","","","clear_screen","null","null","","","critical","d","c","t","160.6713","232.8713","240","164","164","240","spektor","0.05","h","164","240","240","164","160.6713","232.8713","39360","39360","37415.7294","tc","null","null","null","null","null","null","[3,2]"
"","canvas-keyboard-response","42","183760","0.0-6.0-0.6","2","","","","","pre trial waiting period","null","null","","","catch","sh","l","sw","178","217","206","267","203","205","trueblood","null","null","null","null","null","null","null","null","null","null","null","","180","200","260","200","36000","52000","[1,2]"
"","canvas-keyboard-response","43","183920","0.0-6.0-1.6","2","","","","","clear_screen","null","null","","","catch","sh","l","sw","178","217","206","267","203","205","trueblood","null","null","null","null","null","null","null","null","null","null","null","","180","200","260","200","36000","52000","[1,2]"
"","canvas-keyboard-response","44","185256","0.0-6.0-2.6","2","","","","","rectangles","null","null","","","catch","sh","l","sw","178","217","206","267","203","205","trueblood","null","null","null","null","null","null","null","null","null","null","null","","180","200","260","200","36000","52000","[1,2]"
"","canvas-keyboard-response","45","185414","0.0-6.0-3.6","2","","","","","clear_screen","null","null","","","catch","sh","l","sw","178","217","206","267","203","205","trueblood","null","null","null","null","null","null","null","null","null","null","null","","180","200","260","200","36000","52000","[1,2]"
"","canvas-keyboard-response","46","189056","0.0-6.0-4.6","2","","","","","make choice","3633","2","","","catch","sh","l","sw","178","217","206","267","203","205","trueblood","null","null","null","null","null","null","null","null","null","null","null","","180","200","260","200","36000","52000","[1,2]"
"","canvas-keyboard-response","47","189215","0.0-6.0-5.6","2","","","","","clear_screen","null","null","","","catch","sh","l","sw","178","217","206","267","203","205","trueblood","null","null","null","null","null","null","null","null","null","null","null","","180","200","260","200","36000","52000","[1,2]"
"","canvas-keyboard-response","48","189416","0.0-6.0-0.7","2","","","","","pre trial waiting period","null","null","","","critical","d","c","t","240","164","164","240","240","164","trueblood","0","w","240","164","164","240","240","164","39360","39360","39360","tc","null","null","null","null","null","null","[3,2]"
"","canvas-keyboard-response","49","189574","0.0-6.0-1.7","2","","","","","clear_screen","null","null","","","critical","d","c","t","240","164","164","240","240","164","trueblood","0","w","240","164","164","240","240","164","39360","39360","39360","tc","null","null","null","null","null","null","[3,2]"
"","canvas-keyboard-response","50","190910","0.0-6.0-2.7","2","","","","","rectangles","null","null","","","critical","d","c","t","240","164","164","240","240","164","trueblood","0","w","240","164","164","240","240","164","39360","39360","39360","tc","null","null","null","null","null","null","[3,2]"
"","canvas-keyboard-response","51","191069","0.0-6.0-3.7","2","","","","","clear_screen","null","null","","","critical","d","c","t","240","164","164","240","240","164","trueblood","0","w","240","164","164","240","240","164","39360","39360","39360","tc","null","null","null","null","null","null","[3,2]"
"","canvas-keyboard-response","52","197647","0.0-6.0-4.7","2","","","","","make choice","6571","2","","","critical","d","c","t","240","164","164","240","240","164","trueblood","0","w","240","164","164","240","240","164","39360","39360","39360","tc","null","null","null","null","null","null","[3,2]"
"","canvas-keyboard-response","53","197806","0.0-6.0-5.7","2","","","","","clear_screen","null","null","","","critical","d","c","t","240","164","164","240","240","164","trueblood","0","w","240","164","164","240","240","164","39360","39360","39360","tc","null","null","null","null","null","null","[3,2]"
"","canvas-keyboard-response","54","198007","0.0-6.0-0.8","2","","","","","pre trial waiting period","null","null","","","catch","sh","sw","l","196","157","195","204","186","243","trueblood","null","null","null","null","null","null","null","null","null","null","null","","180","200","260","200","36000","52000","[2,3]"
"","canvas-keyboard-response","55","198167","0.0-6.0-1.8","2","","","","","clear_screen","null","null","","","catch","sh","sw","l","196","157","195","204","186","243","trueblood","null","null","null","null","null","null","null","null","null","null","null","","180","200","260","200","36000","52000","[2,3]"
"","canvas-keyboard-response","56","199502","0.0-6.0-2.8","2","","","","","rectangles","null","null","","","catch","sh","sw","l","196","157","195","204","186","243","trueblood","null","null","null","null","null","null","null","null","null","null","null","","180","200","260","200","36000","52000","[2,3]"
"","canvas-keyboard-response","57","199660","0.0-6.0-3.8","2","","","","","clear_screen","null","null","","","catch","sh","sw","l","196","157","195","204","186","243","trueblood","null","null","null","null","null","null","null","null","null","null","null","","180","200","260","200","36000","52000","[2,3]"
"","canvas-keyboard-response","58","205192","0.0-6.0-4.8","2","","","","","make choice","5523","2","","","catch","sh","sw","l","196","157","195","204","186","243","trueblood","null","null","null","null","null","null","null","null","null","null","null","","180","200","260","200","36000","52000","[2,3]"
"","canvas-keyboard-response","59","205352","0.0-6.0-5.8","2","","","","","clear_screen","null","null","","","catch","sh","sw","l","196","157","195","204","186","243","trueblood","null","null","null","null","null","null","null","null","null","null","null","","180","200","260","200","36000","52000","[2,3]"
"","canvas-keyboard-response","60","205553","0.0-6.0-0.9","2","","","","","pre trial waiting period","null","null","","","critical","c","d","t","240","164","154.6796","220.0396","164","240","spektor","0.14","h","164","240","240","164","154.6796","220.0396","39360","39360","34035.6388","td","null","null","null","null","null","null","[3,2]"
"","canvas-keyboard-response","61","205712","0.0-6.0-1.9","2","","","","","clear_screen","null","null","","","critical","c","d","t","240","164","154.6796","220.0396","164","240","spektor","0.14","h","164","240","240","164","154.6796","220.0396","39360","39360","34035.6388","td","null","null","null","null","null","null","[3,2]"
"","canvas-keyboard-response","62","207047","0.0-6.0-2.9","2","","","","","rectangles","null","null","","","critical","c","d","t","240","164","154.6796","220.0396","164","240","spektor","0.14","h","164","240","240","164","154.6796","220.0396","39360","39360","34035.6388","td","null","null","null","null","null","null","[3,2]"
"","canvas-keyboard-response","63","207205","0.0-6.0-3.9","2","","","","","clear_screen","null","null","","","critical","c","d","t","240","164","154.6796","220.0396","164","240","spektor","0.14","h","164","240","240","164","154.6796","220.0396","39360","39360","34035.6388","td","null","null","null","null","null","null","[3,2]"
"","canvas-keyboard-response","64","210976","0.0-6.0-4.9","2","","","","","make choice","3759","3","","","critical","c","d","t","240","164","154.6796","220.0396","164","240","spektor","0.14","h","164","240","240","164","154.6796","220.0396","39360","39360","34035.6388","td","null","null","null","null","null","null","[3,2]"
"","canvas-keyboard-response","65","211134","0.0-6.0-5.9","2","","","","","clear_screen","null","null","","","critical","c","d","t","240","164","154.6796","220.0396","164","240","spektor","0.14","h","164","240","240","164","154.6796","220.0396","39360","39360","34035.6388","td","null","null","null","null","null","null","[3,2]"
"","canvas-keyboard-response","66","211336","0.0-6.0-0.10","2","","","","","pre trial waiting period","null","null","","","critical","c","t","d","240","164","164","240","164","240","spektor","0","h","164","240","240","164","164","240","39360","39360","39360","dc","null","null","null","null","null","null","[3,1]"
"","canvas-keyboard-response","67","211495","0.0-6.0-1.10","2","","","","","clear_screen","null","null","","","critical","c","t","d","240","164","164","240","164","240","spektor","0","h","164","240","240","164","164","240","39360","39360","39360","dc","null","null","null","null","null","null","[3,1]"
"","canvas-keyboard-response","68","212832","0.0-6.0-2.10","2","","","","","rectangles","null","null","","","critical","c","t","d","240","164","164","240","164","240","spektor","0","h","164","240","240","164","164","240","39360","39360","39360","dc","null","null","null","null","null","null","[3,1]"
"","canvas-keyboard-response","69","212990","0.0-6.0-3.10","2","","","","","clear_screen","null","null","","","critical","c","t","d","240","164","164","240","164","240","spektor","0","h","164","240","240","164","164","240","39360","39360","39360","dc","null","null","null","null","null","null","[3,1]"
"","canvas-keyboard-response","70","215832","0.0-6.0-4.10","2","","","","","make choice","2834","3","","","critical","c","t","d","240","164","164","240","164","240","spektor","0","h","164","240","240","164","164","240","39360","39360","39360","dc","null","null","null","null","null","null","[3,1]"
"","canvas-keyboard-response","71","215990","0.0-6.0-5.10","2","","","","","clear_screen","null","null","","","critical","c","t","d","240","164","164","240","164","240","spektor","0","h","164","240","240","164","164","240","39360","39360","39360","dc","null","null","null","null","null","null","[3,1]"
"","canvas-keyboard-response","72","216191","0.0-6.0-0.11","2","","","","","pre trial waiting period","null","null","","","catch","sh","sw","l","188","151","153","219","230","160","trueblood","null","null","null","null","null","null","null","null","null","null","null","","180","200","260","200","36000","52000","[2,3]"
"","canvas-keyboard-response","73","216350","0.0-6.0-1.11","2","","","","","clear_screen","null","null","","","catch","sh","sw","l","188","151","153","219","230","160","trueblood","null","null","null","null","null","null","null","null","null","null","null","","180","200","260","200","36000","52000","[2,3]"
"","canvas-keyboard-response","74","217685","0.0-6.0-2.11","2","","","","","rectangles","null","null","","","catch","sh","sw","l","188","151","153","219","230","160","trueblood","null","null","null","null","null","null","null","null","null","null","null","","180","200","260","200","36000","52000","[2,3]"
"","canvas-keyboard-response","75","217843","0.0-6.0-3.11","2","","","","","clear_screen","null","null","","","catch","sh","sw","l","188","151","153","219","230","160","trueblood","null","null","null","null","null","null","null","null","null","null","null","","180","200","260","200","36000","52000","[2,3]"
"","canvas-keyboard-response","76","218359","0.0-6.0-4.11","2","","","","","make choice","508","3","","","catch","sh","sw","l","188","151","153","219","230","160","trueblood","null","null","null","null","null","null","null","null","null","null","null","","180","200","260","200","36000","52000","[2,3]"
"","canvas-keyboard-response","77","218518","0.0-6.0-5.11","2","","","","","clear_screen","null","null","","","catch","sh","sw","l","188","151","153","219","230","160","trueblood","null","null","null","null","null","null","null","null","null","null","null","","180","200","260","200","36000","52000","[2,3]"
"","canvas-keyboard-response","78","218719","0.0-6.0-0.12","2","","","","","pre trial waiting period","null","null","","","critical","c","t","d","164","240","240","164","227.1683","158.0083","spektor","0.09","w","240","164","164","240","227.1683","158.0083","39360","39360","35894.4834","tc","null","null","null","null","null","null","[2,1]"
"","canvas-keyboard-response","79","218878","0.0-6.0-1.12","2","","","","","clear_screen","null","null","","","critical","c","t","d","164","240","240","164","227.1683","158.0083","spektor","0.09","w","240","164","164","240","227.1683","158.0083","39360","39360","35894.4834","tc","null","null","null","null","null","null","[2,1]"
"","canvas-keyboard-response","80","220213","0.0-6.0-2.12","2","","","","","rectangles","null","null","","","critical","c","t","d","164","240","240","164","227.1683","158.0083","spektor","0.09","w","240","164","164","240","227.1683","158.0083","39360","39360","35894.4834","tc","null","null","null","null","null","null","[2,1]"
"","canvas-keyboard-response","81","220372","0.0-6.0-3.12","2","","","","","clear_screen","null","null","","","critical","c","t","d","164","240","240","164","227.1683","158.0083","spektor","0.09","w","240","164","164","240","227.1683","158.0083","39360","39360","35894.4834","tc","null","null","null","null","null","null","[2,1]"
"","canvas-keyboard-response","82","221280","0.0-6.0-4.12","2","","","","","make choice","900","2","","","critical","c","t","d","164","240","240","164","227.1683","158.0083","spektor","0.09","w","240","164","164","240","227.1683","158.0083","39360","39360","35894.4834","tc","null","null","null","null","null","null","[2,1]"
"","canvas-keyboard-response","83","221438","0.0-6.0-5.12","2","","","","","clear_screen","null","null","","","critical","c","t","d","164","240","240","164","227.1683","158.0083","spektor","0.09","w","240","164","164","240","227.1683","158.0083","39360","39360","35894.4834","tc","null","null","null","null","null","null","[2,1]"
"","canvas-keyboard-response","84","221640","0.0-6.0-0.13","2","","","","","pre trial waiting period","null","null","","","critical","d","c","t","158.0083","227.1683","240","164","164","240","trueblood","0.09","h","164","240","240","164","158.0083","227.1683","39360","39360","35894.4834","tc","null","null","null","null","null","null","[3,2]"
"","canvas-keyboard-response","85","221798","0.0-6.0-1.13","2","","","","","clear_screen","null","null","","","critical","d","c","t","158.0083","227.1683","240","164","164","240","trueblood","0.09","h","164","240","240","164","158.0083","227.1683","39360","39360","35894.4834","tc","null","null","null","null","null","null","[3,2]"
"","canvas-keyboard-response","86","223135","0.0-6.0-2.13","2","","","","","rectangles","null","null","","","critical","d","c","t","158.0083","227.1683","240","164","164","240","trueblood","0.09","h","164","240","240","164","158.0083","227.1683","39360","39360","35894.4834","tc","null","null","null","null","null","null","[3,2]"
"","canvas-keyboard-response","87","223296","0.0-6.0-3.13","2","","","","","clear_screen","null","null","","","critical","d","c","t","158.0083","227.1683","240","164","164","240","trueblood","0.09","h","164","240","240","164","158.0083","227.1683","39360","39360","35894.4834","tc","null","null","null","null","null","null","[3,2]"
"","canvas-keyboard-response","88","225200","0.0-6.0-4.13","2","","","","","make choice","1893","2","","","critical","d","c","t","158.0083","227.1683","240","164","164","240","trueblood","0.09","h","164","240","240","164","158.0083","227.1683","39360","39360","35894.4834","tc","null","null","null","null","null","null","[3,2]"
"","canvas-keyboard-response","89","225359","0.0-6.0-5.13","2","","","","","clear_screen","null","null","","","critical","d","c","t","158.0083","227.1683","240","164","164","240","trueblood","0.09","h","164","240","240","164","158.0083","227.1683","39360","39360","35894.4834","tc","null","null","null","null","null","null","[3,2]"
"","canvas-keyboard-response","90","225561","0.0-6.0-0.14","2","","","","","pre trial waiting period","null","null","","","catch","sh","sw","l","226","219","140","210","239","232","spektor","null","null","null","null","null","null","null","null","null","null","null","","180","200","260","200","36000","52000","[2,3]"
"","canvas-keyboard-response","91","225723","0.0-6.0-1.14","2","","","","","clear_screen","null","null","","","catch","sh","sw","l","226","219","140","210","239","232","spektor","null","null","null","null","null","null","null","null","null","null","null","","180","200","260","200","36000","52000","[2,3]"
"","canvas-keyboard-response","92","227058","0.0-6.0-2.14","2","","","","","rectangles","null","null","","","catch","sh","sw","l","226","219","140","210","239","232","spektor","null","null","null","null","null","null","null","null","null","null","null","","180","200","260","200","36000","52000","[2,3]"
"","canvas-keyboard-response","93","227218","0.0-6.0-3.14","2","","","","","clear_screen","null","null","","","catch","sh","sw","l","226","219","140","210","239","232","spektor","null","null","null","null","null","null","null","null","null","null","null","","180","200","260","200","36000","52000","[2,3]"
"","canvas-keyboard-response","94","228832","0.0-6.0-4.14","2","","","","","make choice","1606","3","","","catch","sh","sw","l","226","219","140","210","239","232","spektor","null","null","null","null","null","null","null","null","null","null","null","","180","200","260","200","36000","52000","[2,3]"
"","canvas-keyboard-response","95","228992","0.0-6.0-5.14","2","","","","","clear_screen","null","null","","","catch","sh","sw","l","226","219","140","210","239","232","spektor","null","null","null","null","null","null","null","null","null","null","null","","180","200","260","200","36000","52000","[2,3]"
"","canvas-keyboard-response","96","229193","0.0-6.0-0.15","2","","","","","pre trial waiting period","null","null","","","catch","l","sw","sh","201","255","161","162","217","177","trueblood","null","null","null","null","null","null","null","null","null","null","null","","180","200","260","200","36000","52000","[1,3]"
"","canvas-keyboard-response","97","229353","0.0-6.0-1.15","2","","","","","clear_screen","null","null","","","catch","l","sw","sh","201","255","161","162","217","177","trueblood","null","null","null","null","null","null","null","null","null","null","null","","180","200","260","200","36000","52000","[1,3]"
"","canvas-keyboard-response","98","230689","0.0-6.0-2.15","2","","","","","rectangles","null","null","","","catch","l","sw","sh","201","255","161","162","217","177","trueblood","null","null","null","null","null","null","null","null","null","null","null","","180","200","260","200","36000","52000","[1,3]"
"","canvas-keyboard-response","99","230853","0.0-6.0-3.15","2","","","","","clear_screen","null","null","","","catch","l","sw","sh","201","255","161","162","217","177","trueblood","null","null","null","null","null","null","null","null","null","null","null","","180","200","260","200","36000","52000","[1,3]"
"","canvas-keyboard-response","100","233432","0.0-6.0-4.15","2","","","","","make choice","2569","1","","","catch","l","sw","sh","201","255","161","162","217","177","trueblood","null","null","null","null","null","null","null","null","null","null","null","","180","200","260","200","36000","52000","[1,3]"
"","canvas-keyboard-response","101","233590","0.0-6.0-5.15","2","","","","","clear_screen","null","null","","","catch","l","sw","sh","201","255","161","162","217","177","trueblood","null","null","null","null","null","null","null","null","null","null","null","","180","200","260","200","36000","52000","[1,3]"
"","canvas-keyboard-response","102","233792","0.0-6.0-0.16","2","","","","","pre trial waiting period","null","null","","","critical","d","c","t","227.1683","158.0083","164","240","240","164","spektor","0.09","w","240","164","164","240","227.1683","158.0083","39360","39360","35894.4834","td","null","null","null","null","null","null","[3,1]"
"","canvas-keyboard-response","103","233951","0.0-6.0-1.16","2","","","","","clear_screen","null","null","","","critical","d","c","t","227.1683","158.0083","164","240","240","164","spektor","0.09","w","240","164","164","240","227.1683","158.0083","39360","39360","35894.4834","td","null","null","null","null","null","null","[3,1]"
"","canvas-keyboard-response","104","235288","0.0-6.0-2.16","2","","","","","rectangles","null","null","","","critical","d","c","t","227.1683","158.0083","164","240","240","164","spektor","0.09","w","240","164","164","240","227.1683","158.0083","39360","39360","35894.4834","td","null","null","null","null","null","null","[3,1]"
"","canvas-keyboard-response","105","235446","0.0-6.0-3.16","2","","","","","clear_screen","null","null","","","critical","d","c","t","227.1683","158.0083","164","240","240","164","spektor","0.09","w","240","164","164","240","227.1683","158.0083","39360","39360","35894.4834","td","null","null","null","null","null","null","[3,1]"
"","canvas-keyboard-response","106","240536","0.0-6.0-4.16","2","","","","","make choice","5080","3","","","critical","d","c","t","227.1683","158.0083","164","240","240","164","spektor","0.09","w","240","164","164","240","227.1683","158.0083","39360","39360","35894.4834","td","null","null","null","null","null","null","[3,1]"
"","canvas-keyboard-response","107","240695","0.0-6.0-5.16","2","","","","","clear_screen","null","null","","","critical","d","c","t","227.1683","158.0083","164","240","240","164","spektor","0.09","w","240","164","164","240","227.1683","158.0083","39360","39360","35894.4834","td","null","null","null","null","null","null","[3,1]"
"","canvas-keyboard-response","108","240897","0.0-6.0-0.17","2","","","","","pre trial waiting period","null","null","","","critical","t","d","c","240","164","220.0396","154.6796","164","240","spektor","0.14","w","240","164","164","240","220.0396","154.6796","39360","39360","34035.6388","td","null","null","null","null","null","null","[1,2]"
"","canvas-keyboard-response","109","241056","0.0-6.0-1.17","2","","","","","clear_screen","null","null","","","critical","t","d","c","240","164","220.0396","154.6796","164","240","spektor","0.14","w","240","164","164","240","220.0396","154.6796","39360","39360","34035.6388","td","null","null","null","null","null","null","[1,2]"
"","canvas-keyboard-response","110","242391","0.0-6.0-2.17","2","","","","","rectangles","null","null","","","critical","t","d","c","240","164","220.0396","154.6796","164","240","spektor","0.14","w","240","164","164","240","220.0396","154.6796","39360","39360","34035.6388","td","null","null","null","null","null","null","[1,2]"
"","canvas-keyboard-response","111","242550","0.0-6.0-3.17","2","","","","","clear_screen","null","null","","","critical","t","d","c","240","164","220.0396","154.6796","164","240","spektor","0.14","w","240","164","164","240","220.0396","154.6796","39360","39360","34035.6388","td","null","null","null","null","null","null","[1,2]"
"","canvas-keyboard-response","112","246224","0.0-6.0-4.17","2","","","","","make choice","3665","2","","","critical","t","d","c","240","164","220.0396","154.6796","164","240","spektor","0.14","w","240","164","164","240","220.0396","154.6796","39360","39360","34035.6388","td","null","null","null","null","null","null","[1,2]"
"","canvas-keyboard-response","113","246383","0.0-6.0-5.17","2","","","","","clear_screen","null","null","","","critical","t","d","c","240","164","220.0396","154.6796","164","240","spektor","0.14","w","240","164","164","240","220.0396","154.6796","39360","39360","34035.6388","td","null","null","null","null","null","null","[1,2]"
"","canvas-keyboard-response","114","246584","0.0-6.0-0.18","2","","","","","pre trial waiting period","null","null","","","catch","sw","sh","l","180","200","174","185","276","174","trueblood","null","null","null","null","null","null","null","null","null","null","null","","180","200","260","200","36000","52000","[2,3]"
"","canvas-keyboard-response","115","246743","0.0-6.0-1.18","2","","","","","clear_screen","null","null","","","catch","sw","sh","l","180","200","174","185","276","174","trueblood","null","null","null","null","null","null","null","null","null","null","null","","180","200","260","200","36000","52000","[2,3]"
"","canvas-keyboard-response","116","248079","0.0-6.0-2.18","2","","","","","rectangles","null","null","","","catch","sw","sh","l","180","200","174","185","276","174","trueblood","null","null","null","null","null","null","null","null","null","null","null","","180","200","260","200","36000","52000","[2,3]"
"","canvas-keyboard-response","117","248238","0.0-6.0-3.18","2","","","","","clear_screen","null","null","","","catch","sw","sh","l","180","200","174","185","276","174","trueblood","null","null","null","null","null","null","null","null","null","null","null","","180","200","260","200","36000","52000","[2,3]"
"","canvas-keyboard-response","118","250031","0.0-6.0-4.18","2","","","","","make choice","1786","3","","","catch","sw","sh","l","180","200","174","185","276","174","trueblood","null","null","null","null","null","null","null","null","null","null","null","","180","200","260","200","36000","52000","[2,3]"
"","canvas-keyboard-response","119","250190","0.0-6.0-5.18","2","","","","","clear_screen","null","null","","","catch","sw","sh","l","180","200","174","185","276","174","trueblood","null","null","null","null","null","null","null","null","null","null","null","","180","200","260","200","36000","52000","[2,3]"
"","canvas-keyboard-response","120","250391","0.0-6.0-0.19","2","","","","","pre trial waiting period","null","null","","","catch","sw","l","sh","180","200","243","224","180","211","spektor","null","null","null","null","null","null","null","null","null","null","null","","180","200","260","200","36000","52000","[1,2]"
"","canvas-keyboard-response","121","250550","0.0-6.0-1.19","2","","","","","clear_screen","null","null","","","catch","sw","l","sh","180","200","243","224","180","211","spektor","null","null","null","null","null","null","null","null","null","null","null","","180","200","260","200","36000","52000","[1,2]"
"","canvas-keyboard-response","122","251885","0.0-6.0-2.19","2","","","","","rectangles","null","null","","","catch","sw","l","sh","180","200","243","224","180","211","spektor","null","null","null","null","null","null","null","null","null","null","null","","180","200","260","200","36000","52000","[1,2]"
"","canvas-keyboard-response","123","252044","0.0-6.0-3.19","2","","","","","clear_screen","null","null","","","catch","sw","l","sh","180","200","243","224","180","211","spektor","null","null","null","null","null","null","null","null","null","null","null","","180","200","260","200","36000","52000","[1,2]"
"","canvas-keyboard-response","124","254663","0.0-6.0-4.19","2","","","","","make choice","2610","2","","","catch","sw","l","sh","180","200","243","224","180","211","spektor","null","null","null","null","null","null","null","null","null","null","null","","180","200","260","200","36000","52000","[1,2]"
"","canvas-keyboard-response","125","254823","0.0-6.0-5.19","2","","","","","clear_screen","null","null","","","catch","sw","l","sh","180","200","243","224","180","211","spektor","null","null","null","null","null","null","null","null","null","null","null","","180","200","260","200","36000","52000","[1,2]"
"","canvas-keyboard-response","126","255024","0.0-6.0-0.20","2","","","","","pre trial waiting period","null","null","","","catch","l","sw","sh","183","281","167","223","183","214","spektor","null","null","null","null","null","null","null","null","null","null","null","","180","200","260","200","36000","52000","[1,2]"
"","canvas-keyboard-response","127","255183","0.0-6.0-1.20","2","","","","","clear_screen","null","null","","","catch","l","sw","sh","183","281","167","223","183","214","spektor","null","null","null","null","null","null","null","null","null","null","null","","180","200","260","200","36000","52000","[1,2]"
"","canvas-keyboard-response","128","256518","0.0-6.0-2.20","2","","","","","rectangles","null","null","","","catch","l","sw","sh","183","281","167","223","183","214","spektor","null","null","null","null","null","null","null","null","null","null","null","","180","200","260","200","36000","52000","[1,2]"
"","canvas-keyboard-response","129","256676","0.0-6.0-3.20","2","","","","","clear_screen","null","null","","","catch","l","sw","sh","183","281","167","223","183","214","spektor","null","null","null","null","null","null","null","null","null","null","null","","180","200","260","200","36000","52000","[1,2]"
"","canvas-keyboard-response","130","257552","0.0-6.0-4.20","2","","","","","make choice","867","1","","","catch","l","sw","sh","183","281","167","223","183","214","spektor","null","null","null","null","null","null","null","null","null","null","null","","180","200","260","200","36000","52000","[1,2]"
"","canvas-keyboard-response","131","257709","0.0-6.0-5.20","2","","","","","clear_screen","null","null","","","catch","l","sw","sh","183","281","167","223","183","214","spektor","null","null","null","null","null","null","null","null","null","null","null","","180","200","260","200","36000","52000","[1,2]"
"","canvas-keyboard-response","132","257910","0.0-6.0-0.21","2","","","","","pre trial waiting period","null","null","","","catch","sw","sh","l","180","200","180","211","168","257","trueblood","null","null","null","null","null","null","null","null","null","null","null","","180","200","260","200","36000","52000","[1,3]"
"","canvas-keyboard-response","133","258069","0.0-6.0-1.21","2","","","","","clear_screen","null","null","","","catch","sw","sh","l","180","200","180","211","168","257","trueblood","null","null","null","null","null","null","null","null","null","null","null","","180","200","260","200","36000","52000","[1,3]"
"","canvas-keyboard-response","134","259404","0.0-6.0-2.21","2","","","","","rectangles","null","null","","","catch","sw","sh","l","180","200","180","211","168","257","trueblood","null","null","null","null","null","null","null","null","null","null","null","","180","200","260","200","36000","52000","[1,3]"
"","canvas-keyboard-response","135","259563","0.0-6.0-3.21","2","","","","","clear_screen","null","null","","","catch","sw","sh","l","180","200","180","211","168","257","trueblood","null","null","null","null","null","null","null","null","null","null","null","","180","200","260","200","36000","52000","[1,3]"
"","canvas-keyboard-response","136","260201","0.0-6.0-4.21","2","","","","","make choice","628","3","","","catch","sw","sh","l","180","200","180","211","168","257","trueblood","null","null","null","null","null","null","null","null","null","null","null","","180","200","260","200","36000","52000","[1,3]"
"","canvas-keyboard-response","137","260361","0.0-6.0-5.21","2","","","","","clear_screen","null","null","","","catch","sw","sh","l","180","200","180","211","168","257","trueblood","null","null","null","null","null","null","null","null","null","null","null","","180","200","260","200","36000","52000","[1,3]"
"","canvas-keyboard-response","138","260564","0.0-6.0-0.22","2","","","","","pre trial waiting period","null","null","","","critical","d","t","c","158.0083","227.1683","164","240","240","164","trueblood","0.09","h","164","240","240","164","158.0083","227.1683","39360","39360","35894.4834","td","null","null","null","null","null","null","[2,1]"
"","canvas-keyboard-response","139","260725","0.0-6.0-1.22","2","","","","","clear_screen","null","null","","","critical","d","t","c","158.0083","227.1683","164","240","240","164","trueblood","0.09","h","164","240","240","164","158.0083","227.1683","39360","39360","35894.4834","td","null","null","null","null","null","null","[2,1]"
"","canvas-keyboard-response","140","262061","0.0-6.0-2.22","2","","","","","rectangles","null","null","","","critical","d","t","c","158.0083","227.1683","164","240","240","164","trueblood","0.09","h","164","240","240","164","158.0083","227.1683","39360","39360","35894.4834","td","null","null","null","null","null","null","[2,1]"
"","canvas-keyboard-response","141","262220","0.0-6.0-3.22","2","","","","","clear_screen","null","null","","","critical","d","t","c","158.0083","227.1683","164","240","240","164","trueblood","0.09","h","164","240","240","164","158.0083","227.1683","39360","39360","35894.4834","td","null","null","null","null","null","null","[2,1]"
"","canvas-keyboard-response","142","262552","0.0-6.0-4.22","2","","","","","make choice","323","2","","","critical","d","t","c","158.0083","227.1683","164","240","240","164","trueblood","0.09","h","164","240","240","164","158.0083","227.1683","39360","39360","35894.4834","td","null","null","null","null","null","null","[2,1]"
"","canvas-keyboard-response","143","262711","0.0-6.0-5.22","2","","","","","clear_screen","null","null","","","critical","d","t","c","158.0083","227.1683","164","240","240","164","trueblood","0.09","h","164","240","240","164","158.0083","227.1683","39360","39360","35894.4834","td","null","null","null","null","null","null","[2,1]"
"","canvas-keyboard-response","144","262912","0.0-6.0-0.23","2","","","","","pre trial waiting period","null","null","","","critical","d","c","t","160.6713","232.8713","240","164","164","240","spektor","0.05","h","164","240","240","164","160.6713","232.8713","39360","39360","37415.7294","dc","null","null","null","null","null","null","[1,2]"
"","canvas-keyboard-response","145","263072","0.0-6.0-1.23","2","","","","","clear_screen","null","null","","","critical","d","c","t","160.6713","232.8713","240","164","164","240","spektor","0.05","h","164","240","240","164","160.6713","232.8713","39360","39360","37415.7294","dc","null","null","null","null","null","null","[1,2]"
"","canvas-keyboard-response","146","264409","0.0-6.0-2.23","2","","","","","rectangles","null","null","","","critical","d","c","t","160.6713","232.8713","240","164","164","240","spektor","0.05","h","164","240","240","164","160.6713","232.8713","39360","39360","37415.7294","dc","null","null","null","null","null","null","[1,2]"
"","canvas-keyboard-response","147","264568","0.0-6.0-3.23","2","","","","","clear_screen","null","null","","","critical","d","c","t","160.6713","232.8713","240","164","164","240","spektor","0.05","h","164","240","240","164","160.6713","232.8713","39360","39360","37415.7294","dc","null","null","null","null","null","null","[1,2]"
"","canvas-keyboard-response","148","268384","0.0-6.0-4.23","2","","","","","make choice","3805","1","","","critical","d","c","t","160.6713","232.8713","240","164","164","240","spektor","0.05","h","164","240","240","164","160.6713","232.8713","39360","39360","37415.7294","dc","null","null","null","null","null","null","[1,2]"
"","canvas-keyboard-response","149","268545","0.0-6.0-5.23","2","","","","","clear_screen","null","null","","","critical","d","c","t","160.6713","232.8713","240","164","164","240","spektor","0.05","h","164","240","240","164","160.6713","232.8713","39360","39360","37415.7294","dc","null","null","null","null","null","null","[1,2]"
"","canvas-keyboard-response","150","268747","0.0-6.0-0.24","2","","","","","pre trial waiting period","null","null","","","critical","t","d","c","240","164","232.8713","160.6713","164","240","trueblood","0.05","w","240","164","164","240","232.8713","160.6713","39360","39360","37415.7294","dc","null","null","null","null","null","null","[2,3]"
"","canvas-keyboard-response","151","268906","0.0-6.0-1.24","2","","","","","clear_screen","null","null","","","critical","t","d","c","240","164","232.8713","160.6713","164","240","trueblood","0.05","w","240","164","164","240","232.8713","160.6713","39360","39360","37415.7294","dc","null","null","null","null","null","null","[2,3]"
"","canvas-keyboard-response","152","270243","0.0-6.0-2.24","2","","","","","rectangles","null","null","","","critical","t","d","c","240","164","232.8713","160.6713","164","240","trueblood","0.05","w","240","164","164","240","232.8713","160.6713","39360","39360","37415.7294","dc","null","null","null","null","null","null","[2,3]"
"","canvas-keyboard-response","153","270402","0.0-6.0-3.24","2","","","","","clear_screen","null","null","","","critical","t","d","c","240","164","232.8713","160.6713","164","240","trueblood","0.05","w","240","164","164","240","232.8713","160.6713","39360","39360","37415.7294","dc","null","null","null","null","null","null","[2,3]"
"","canvas-keyboard-response","154","275263","0.0-6.0-4.24","2","","","","","make choice","4853","3","","","critical","t","d","c","240","164","232.8713","160.6713","164","240","trueblood","0.05","w","240","164","164","240","232.8713","160.6713","39360","39360","37415.7294","dc","null","null","null","null","null","null","[2,3]"
"","canvas-keyboard-response","155","275423","0.0-6.0-5.24","2","","","","","clear_screen","null","null","","","critical","t","d","c","240","164","232.8713","160.6713","164","240","trueblood","0.05","w","240","164","164","240","232.8713","160.6713","39360","39360","37415.7294","dc","null","null","null","null","null","null","[2,3]"
"","canvas-keyboard-response","156","275624","0.0-6.0-0.25","2","","","","","pre trial waiting period","null","null","","","catch","l","sw","sh","222","230","186","173","175","151","spektor","null","null","null","null","null","null","null","null","null","null","null","","180","200","260","200","36000","52000","[1,3]"
"","canvas-keyboard-response","157","275784","0.0-6.0-1.25","2","","","","","clear_screen","null","null","","","catch","l","sw","sh","222","230","186","173","175","151","spektor","null","null","null","null","null","null","null","null","null","null","null","","180","200","260","200","36000","52000","[1,3]"
"","canvas-keyboard-response","158","277120","0.0-6.0-2.25","2","","","","","rectangles","null","null","","","catch","l","sw","sh","222","230","186","173","175","151","spektor","null","null","null","null","null","null","null","null","null","null","null","","180","200","260","200","36000","52000","[1,3]"
"","canvas-keyboard-response","159","277278","0.0-6.0-3.25","2","","","","","clear_screen","null","null","","","catch","l","sw","sh","222","230","186","173","175","151","spektor","null","null","null","null","null","null","null","null","null","null","null","","180","200","260","200","36000","52000","[1,3]"
"","canvas-keyboard-response","160","277959","0.0-6.0-4.25","2","","","","","make choice","672","1","","","catch","l","sw","sh","222","230","186","173","175","151","spektor","null","null","null","null","null","null","null","null","null","null","null","","180","200","260","200","36000","52000","[1,3]"
"","canvas-keyboard-response","161","278118","0.0-6.0-5.25","2","","","","","clear_screen","null","null","","","catch","l","sw","sh","222","230","186","173","175","151","spektor","null","null","null","null","null","null","null","null","null","null","null","","180","200","260","200","36000","52000","[1,3]"
"","canvas-keyboard-response","162","278319","0.0-6.0-0.26","2","","","","","pre trial waiting period","null","null","","","critical","d","t","c","154.6796","220.0396","164","240","240","164","spektor","0.14","h","164","240","240","164","154.6796","220.0396","39360","39360","34035.6388","dc","null","null","null","null","null","null","[1,3]"
"","canvas-keyboard-response","163","278479","0.0-6.0-1.26","2","","","","","clear_screen","null","null","","","critical","d","t","c","154.6796","220.0396","164","240","240","164","spektor","0.14","h","164","240","240","164","154.6796","220.0396","39360","39360","34035.6388","dc","null","null","null","null","null","null","[1,3]"
"","canvas-keyboard-response","164","279814","0.0-6.0-2.26","2","","","","","rectangles","null","null","","","critical","d","t","c","154.6796","220.0396","164","240","240","164","spektor","0.14","h","164","240","240","164","154.6796","220.0396","39360","39360","34035.6388","dc","null","null","null","null","null","null","[1,3]"
"","canvas-keyboard-response","165","279973","0.0-6.0-3.26","2","","","","","clear_screen","null","null","","","critical","d","t","c","154.6796","220.0396","164","240","240","164","spektor","0.14","h","164","240","240","164","154.6796","220.0396","39360","39360","34035.6388","dc","null","null","null","null","null","null","[1,3]"
"","canvas-keyboard-response","166","280551","0.0-6.0-4.26","2","","","","","make choice","571","3","","","critical","d","t","c","154.6796","220.0396","164","240","240","164","spektor","0.14","h","164","240","240","164","154.6796","220.0396","39360","39360","34035.6388","dc","null","null","null","null","null","null","[1,3]"
"","canvas-keyboard-response","167","280708","0.0-6.0-5.26","2","","","","","clear_screen","null","null","","","critical","d","t","c","154.6796","220.0396","164","240","240","164","spektor","0.14","h","164","240","240","164","154.6796","220.0396","39360","39360","34035.6388","dc","null","null","null","null","null","null","[1,3]"
"","canvas-keyboard-response","168","280910","0.0-6.0-0.27","2","","","","","pre trial waiting period","null","null","","","critical","t","d","c","240","164","232.8713","160.6713","164","240","spektor","0.05","w","240","164","164","240","232.8713","160.6713","39360","39360","37415.7294","tc","null","null","null","null","null","null","[1,3]"
"","canvas-keyboard-response","169","281069","0.0-6.0-1.27","2","","","","","clear_screen","null","null","","","critical","t","d","c","240","164","232.8713","160.6713","164","240","spektor","0.05","w","240","164","164","240","232.8713","160.6713","39360","39360","37415.7294","tc","null","null","null","null","null","null","[1,3]"
"","canvas-keyboard-response","170","282404","0.0-6.0-2.27","2","","","","","rectangles","null","null","","","critical","t","d","c","240","164","232.8713","160.6713","164","240","spektor","0.05","w","240","164","164","240","232.8713","160.6713","39360","39360","37415.7294","tc","null","null","null","null","null","null","[1,3]"
"","canvas-keyboard-response","171","282562","0.0-6.0-3.27","2","","","","","clear_screen","null","null","","","critical","t","d","c","240","164","232.8713","160.6713","164","240","spektor","0.05","w","240","164","164","240","232.8713","160.6713","39360","39360","37415.7294","tc","null","null","null","null","null","null","[1,3]"
"","canvas-keyboard-response","172","285735","0.0-6.0-4.27","2","","","","","make choice","3165","1","","","critical","t","d","c","240","164","232.8713","160.6713","164","240","spektor","0.05","w","240","164","164","240","232.8713","160.6713","39360","39360","37415.7294","tc","null","null","null","null","null","null","[1,3]"
"","canvas-keyboard-response","173","285899","0.0-6.0-5.27","2","","","","","clear_screen","null","null","","","critical","t","d","c","240","164","232.8713","160.6713","164","240","spektor","0.05","w","240","164","164","240","232.8713","160.6713","39360","39360","37415.7294","tc","null","null","null","null","null","null","[1,3]"
"","canvas-keyboard-response","174","286101","0.0-6.0-0.28","2","","","","","pre trial waiting period","null","null","","","critical","t","d","c","240","164","227.1683","158.0083","164","240","trueblood","0.09","w","240","164","164","240","227.1683","158.0083","39360","39360","35894.4834","td","null","null","null","null","null","null","[1,2]"
"","canvas-keyboard-response","175","286261","0.0-6.0-1.28","2","","","","","clear_screen","null","null","","","critical","t","d","c","240","164","227.1683","158.0083","164","240","trueblood","0.09","w","240","164","164","240","227.1683","158.0083","39360","39360","35894.4834","td","null","null","null","null","null","null","[1,2]"
"","canvas-keyboard-response","176","287596","0.0-6.0-2.28","2","","","","","rectangles","null","null","","","critical","t","d","c","240","164","227.1683","158.0083","164","240","trueblood","0.09","w","240","164","164","240","227.1683","158.0083","39360","39360","35894.4834","td","null","null","null","null","null","null","[1,2]"
"","canvas-keyboard-response","177","287755","0.0-6.0-3.28","2","","","","","clear_screen","null","null","","","critical","t","d","c","240","164","227.1683","158.0083","164","240","trueblood","0.09","w","240","164","164","240","227.1683","158.0083","39360","39360","35894.4834","td","null","null","null","null","null","null","[1,2]"
"","canvas-keyboard-response","178","289223","0.0-6.0-4.28","2","","","","","make choice","1461","1","","","critical","t","d","c","240","164","227.1683","158.0083","164","240","trueblood","0.09","w","240","164","164","240","227.1683","158.0083","39360","39360","35894.4834","td","null","null","null","null","null","null","[1,2]"
"","canvas-keyboard-response","179","289381","0.0-6.0-5.28","2","","","","","clear_screen","null","null","","","critical","t","d","c","240","164","227.1683","158.0083","164","240","trueblood","0.09","w","240","164","164","240","227.1683","158.0083","39360","39360","35894.4834","td","null","null","null","null","null","null","[1,2]"
"","canvas-keyboard-response","180","289582","0.0-6.0-0.29","2","","","","","pre trial waiting period","null","null","","","critical","c","d","t","240","164","160.6713","232.8713","164","240","spektor","0.05","h","164","240","240","164","160.6713","232.8713","39360","39360","37415.7294","td","null","null","null","null","null","null","[3,2]"
"","canvas-keyboard-response","181","289741","0.0-6.0-1.29","2","","","","","clear_screen","null","null","","","critical","c","d","t","240","164","160.6713","232.8713","164","240","spektor","0.05","h","164","240","240","164","160.6713","232.8713","39360","39360","37415.7294","td","null","null","null","null","null","null","[3,2]"
"","canvas-keyboard-response","182","291076","0.0-6.0-2.29","2","","","","","rectangles","null","null","","","critical","c","d","t","240","164","160.6713","232.8713","164","240","spektor","0.05","h","164","240","240","164","160.6713","232.8713","39360","39360","37415.7294","td","null","null","null","null","null","null","[3,2]"
"","canvas-keyboard-response","183","291238","0.0-6.0-3.29","2","","","","","clear_screen","null","null","","","critical","c","d","t","240","164","160.6713","232.8713","164","240","spektor","0.05","h","164","240","240","164","160.6713","232.8713","39360","39360","37415.7294","td","null","null","null","null","null","null","[3,2]"
"","canvas-keyboard-response","184","297656","0.0-6.0-4.29","2","","","","","make choice","6407","3","","","critical","c","d","t","240","164","160.6713","232.8713","164","240","spektor","0.05","h","164","240","240","164","160.6713","232.8713","39360","39360","37415.7294","td","null","null","null","null","null","null","[3,2]"
"","canvas-keyboard-response","185","297815","0.0-6.0-5.29","2","","","","","clear_screen","null","null","","","critical","c","d","t","240","164","160.6713","232.8713","164","240","spektor","0.05","h","164","240","240","164","160.6713","232.8713","39360","39360","37415.7294","td","null","null","null","null","null","null","[3,2]"
"","canvas-keyboard-response","186","298017","0.0-6.0-0.30","2","","","","","pre trial waiting period","null","null","","","catch","sw","l","sh","180","200","216","257","173","172","spektor","null","null","null","null","null","null","null","null","null","null","null","","180","200","260","200","36000","52000","[1,2]"
"","canvas-keyboard-response","187","298177","0.0-6.0-1.30","2","","","","","clear_screen","null","null","","","catch","sw","l","sh","180","200","216","257","173","172","spektor","null","null","null","null","null","null","null","null","null","null","null","","180","200","260","200","36000","52000","[1,2]"
"","canvas-keyboard-response","188","299513","0.0-6.0-2.30","2","","","","","rectangles","null","null","","","catch","sw","l","sh","180","200","216","257","173","172","spektor","null","null","null","null","null","null","null","null","null","null","null","","180","200","260","200","36000","52000","[1,2]"
"","canvas-keyboard-response","189","299672","0.0-6.0-3.30","2","","","","","clear_screen","null","null","","","catch","sw","l","sh","180","200","216","257","173","172","spektor","null","null","null","null","null","null","null","null","null","null","null","","180","200","260","200","36000","52000","[1,2]"
"","canvas-keyboard-response","190","300567","0.0-6.0-4.30","2","","","","","make choice","886","2","","","catch","sw","l","sh","180","200","216","257","173","172","spektor","null","null","null","null","null","null","null","null","null","null","null","","180","200","260","200","36000","52000","[1,2]"
"","canvas-keyboard-response","191","300726","0.0-6.0-5.30","2","","","","","clear_screen","null","null","","","catch","sw","l","sh","180","200","216","257","173","172","spektor","null","null","null","null","null","null","null","null","null","null","null","","180","200","260","200","36000","52000","[1,2]"
"","canvas-keyboard-response","192","300928","0.0-6.0-0.31","2","","","","","pre trial waiting period","null","null","","","catch","sw","sh","l","180","200","163","214","232","268","spektor","null","null","null","null","null","null","null","null","null","null","null","","180","200","260","200","36000","52000","[2,3]"
"","canvas-keyboard-response","193","301088","0.0-6.0-1.31","2","","","","","clear_screen","null","null","","","catch","sw","sh","l","180","200","163","214","232","268","spektor","null","null","null","null","null","null","null","null","null","null","null","","180","200","260","200","36000","52000","[2,3]"
"","canvas-keyboard-response","194","302425","0.0-6.0-2.31","2","","","","","rectangles","null","null","","","catch","sw","sh","l","180","200","163","214","232","268","spektor","null","null","null","null","null","null","null","null","null","null","null","","180","200","260","200","36000","52000","[2,3]"
"","canvas-keyboard-response","195","302585","0.0-6.0-3.31","2","","","","","clear_screen","null","null","","","catch","sw","sh","l","180","200","163","214","232","268","spektor","null","null","null","null","null","null","null","null","null","null","null","","180","200","260","200","36000","52000","[2,3]"
"","canvas-keyboard-response","196","302943","0.0-6.0-4.31","2","","","","","make choice","349","3","","","catch","sw","sh","l","180","200","163","214","232","268","spektor","null","null","null","null","null","null","null","null","null","null","null","","180","200","260","200","36000","52000","[2,3]"
"","canvas-keyboard-response","197","303102","0.0-6.0-5.31","2","","","","","clear_screen","null","null","","","catch","sw","sh","l","180","200","163","214","232","268","spektor","null","null","null","null","null","null","null","null","null","null","null","","180","200","260","200","36000","52000","[2,3]"
"","canvas-keyboard-response","198","303303","0.0-6.0-0.32","2","","","","","pre trial waiting period","null","null","","","catch","sw","sh","l","180","200","184","178","204","292","spektor","null","null","null","null","null","null","null","null","null","null","null","","180","200","260","200","36000","52000","[2,3]"
"","canvas-keyboard-response","199","303463","0.0-6.0-1.32","2","","","","","clear_screen","null","null","","","catch","sw","sh","l","180","200","184","178","204","292","spektor","null","null","null","null","null","null","null","null","null","null","null","","180","200","260","200","36000","52000","[2,3]"
"","canvas-keyboard-response","200","304799","0.0-6.0-2.32","2","","","","","rectangles","null","null","","","catch","sw","sh","l","180","200","184","178","204","292","spektor","null","null","null","null","null","null","null","null","null","null","null","","180","200","260","200","36000","52000","[2,3]"
"","canvas-keyboard-response","201","304958","0.0-6.0-3.32","2","","","","","clear_screen","null","null","","","catch","sw","sh","l","180","200","184","178","204","292","spektor","null","null","null","null","null","null","null","null","null","null","null","","180","200","260","200","36000","52000","[2,3]"
"","canvas-keyboard-response","202","305936","0.0-6.0-4.32","2","","","","","make choice","968","3","","","catch","sw","sh","l","180","200","184","178","204","292","spektor","null","null","null","null","null","null","null","null","null","null","null","","180","200","260","200","36000","52000","[2,3]"
"","canvas-keyboard-response","203","306095","0.0-6.0-5.32","2","","","","","clear_screen","null","null","","","catch","sw","sh","l","180","200","184","178","204","292","spektor","null","null","null","null","null","null","null","null","null","null","null","","180","200","260","200","36000","52000","[2,3]"
"","canvas-keyboard-response","204","306296","0.0-6.0-0.33","2","","","","","pre trial waiting period","null","null","","","critical","c","t","d","164","240","240","164","237.1485","162.6685","spektor","0.02","w","240","164","164","240","237.1485","162.6685","39360","39360","38576.5967","dc","null","null","null","null","null","null","[3,1]"
"","canvas-keyboard-response","205","306456","0.0-6.0-1.33","2","","","","","clear_screen","null","null","","","critical","c","t","d","164","240","240","164","237.1485","162.6685","spektor","0.02","w","240","164","164","240","237.1485","162.6685","39360","39360","38576.5967","dc","null","null","null","null","null","null","[3,1]"
"","canvas-keyboard-response","206","307791","0.0-6.0-2.33","2","","","","","rectangles","null","null","","","critical","c","t","d","164","240","240","164","237.1485","162.6685","spektor","0.02","w","240","164","164","240","237.1485","162.6685","39360","39360","38576.5967","dc","null","null","null","null","null","null","[3,1]"
"","canvas-keyboard-response","207","307950","0.0-6.0-3.33","2","","","","","clear_screen","null","null","","","critical","c","t","d","164","240","240","164","237.1485","162.6685","spektor","0.02","w","240","164","164","240","237.1485","162.6685","39360","39360","38576.5967","dc","null","null","null","null","null","null","[3,1]"
"","canvas-keyboard-response","208","312183","0.0-6.0-4.33","2","","","","","make choice","4224","3","","","critical","c","t","d","164","240","240","164","237.1485","162.6685","spektor","0.02","w","240","164","164","240","237.1485","162.6685","39360","39360","38576.5967","dc","null","null","null","null","null","null","[3,1]"
"","canvas-keyboard-response","209","312342","0.0-6.0-5.33","2","","","","","clear_screen","null","null","","","critical","c","t","d","164","240","240","164","237.1485","162.6685","spektor","0.02","w","240","164","164","240","237.1485","162.6685","39360","39360","38576.5967","dc","null","null","null","null","null","null","[3,1]"
"","canvas-keyboard-response","210","312543","0.0-6.0-0.34","2","","","","","pre trial waiting period","null","null","","","critical","d","t","c","158.0083","227.1683","164","240","240","164","spektor","0.09","h","164","240","240","164","158.0083","227.1683","39360","39360","35894.4834","tc","null","null","null","null","null","null","[2,3]"
"","canvas-keyboard-response","211","312702","0.0-6.0-1.34","2","","","","","clear_screen","null","null","","","critical","d","t","c","158.0083","227.1683","164","240","240","164","spektor","0.09","h","164","240","240","164","158.0083","227.1683","39360","39360","35894.4834","tc","null","null","null","null","null","null","[2,3]"
"","canvas-keyboard-response","212","314037","0.0-6.0-2.34","2","","","","","rectangles","null","null","","","critical","d","t","c","158.0083","227.1683","164","240","240","164","spektor","0.09","h","164","240","240","164","158.0083","227.1683","39360","39360","35894.4834","tc","null","null","null","null","null","null","[2,3]"
"","canvas-keyboard-response","213","314196","0.0-6.0-3.34","2","","","","","clear_screen","null","null","","","critical","d","t","c","158.0083","227.1683","164","240","240","164","spektor","0.09","h","164","240","240","164","158.0083","227.1683","39360","39360","35894.4834","tc","null","null","null","null","null","null","[2,3]"
"","canvas-keyboard-response","214","317104","0.0-6.0-4.34","2","","","","","make choice","2898","2","","","critical","d","t","c","158.0083","227.1683","164","240","240","164","spektor","0.09","h","164","240","240","164","158.0083","227.1683","39360","39360","35894.4834","tc","null","null","null","null","null","null","[2,3]"
"","canvas-keyboard-response","215","317262","0.0-6.0-5.34","2","","","","","clear_screen","null","null","","","critical","d","t","c","158.0083","227.1683","164","240","240","164","spektor","0.09","h","164","240","240","164","158.0083","227.1683","39360","39360","35894.4834","tc","null","null","null","null","null","null","[2,3]"
"","canvas-keyboard-response","216","317462","0.0-6.0-0.35","2","","","","","pre trial waiting period","null","null","","","critical","c","t","d","240","164","164","240","158.0083","227.1683","trueblood","0.09","h","164","240","240","164","158.0083","227.1683","39360","39360","35894.4834","dc","null","null","null","null","null","null","[3,1]"
"","canvas-keyboard-response","217","317621","0.0-6.0-1.35","2","","","","","clear_screen","null","null","","","critical","c","t","d","240","164","164","240","158.0083","227.1683","trueblood","0.09","h","164","240","240","164","158.0083","227.1683","39360","39360","35894.4834","dc","null","null","null","null","null","null","[3,1]"
"","canvas-keyboard-response","218","318957","0.0-6.0-2.35","2","","","","","rectangles","null","null","","","critical","c","t","d","240","164","164","240","158.0083","227.1683","trueblood","0.09","h","164","240","240","164","158.0083","227.1683","39360","39360","35894.4834","dc","null","null","null","null","null","null","[3,1]"
"","canvas-keyboard-response","219","319116","0.0-6.0-3.35","2","","","","","clear_screen","null","null","","","critical","c","t","d","240","164","164","240","158.0083","227.1683","trueblood","0.09","h","164","240","240","164","158.0083","227.1683","39360","39360","35894.4834","dc","null","null","null","null","null","null","[3,1]"
"","canvas-keyboard-response","220","320879","0.0-6.0-4.35","2","","","","","make choice","1754","1","","","critical","c","t","d","240","164","164","240","158.0083","227.1683","trueblood","0.09","h","164","240","240","164","158.0083","227.1683","39360","39360","35894.4834","dc","null","null","null","null","null","null","[3,1]"
"","canvas-keyboard-response","221","321040","0.0-6.0-5.35","2","","","","","clear_screen","null","null","","","critical","c","t","d","240","164","164","240","158.0083","227.1683","trueblood","0.09","h","164","240","240","164","158.0083","227.1683","39360","39360","35894.4834","dc","null","null","null","null","null","null","[3,1]"
"","canvas-keyboard-response","222","321241","0.0-6.0-0.36","2","","","","","pre trial waiting period","null","null","","","critical","d","c","t","237.1485","162.6685","164","240","240","164","trueblood","0.02","w","240","164","164","240","237.1485","162.6685","39360","39360","38576.5967","tc","null","null","null","null","null","null","[3,2]"
"","canvas-keyboard-response","223","321400","0.0-6.0-1.36","2","","","","","clear_screen","null","null","","","critical","d","c","t","237.1485","162.6685","164","240","240","164","trueblood","0.02","w","240","164","164","240","237.1485","162.6685","39360","39360","38576.5967","tc","null","null","null","null","null","null","[3,2]"
"","canvas-keyboard-response","224","322735","0.0-6.0-2.36","2","","","","","rectangles","null","null","","","critical","d","c","t","237.1485","162.6685","164","240","240","164","trueblood","0.02","w","240","164","164","240","237.1485","162.6685","39360","39360","38576.5967","tc","null","null","null","null","null","null","[3,2]"
"","canvas-keyboard-response","225","322894","0.0-6.0-3.36","2","","","","","clear_screen","null","null","","","critical","d","c","t","237.1485","162.6685","164","240","240","164","trueblood","0.02","w","240","164","164","240","237.1485","162.6685","39360","39360","38576.5967","tc","null","null","null","null","null","null","[3,2]"
"","canvas-keyboard-response","226","324255","0.0-6.0-4.36","2","","","","","make choice","1353","2","","","critical","d","c","t","237.1485","162.6685","164","240","240","164","trueblood","0.02","w","240","164","164","240","237.1485","162.6685","39360","39360","38576.5967","tc","null","null","null","null","null","null","[3,2]"
"","canvas-keyboard-response","227","324413","0.0-6.0-5.36","2","","","","","clear_screen","null","null","","","critical","d","c","t","237.1485","162.6685","164","240","240","164","trueblood","0.02","w","240","164","164","240","237.1485","162.6685","39360","39360","38576.5967","tc","null","null","null","null","null","null","[3,2]"
"","canvas-keyboard-response","228","324614","0.0-6.0-0.37","2","","","","","pre trial waiting period","null","null","","","critical","c","d","t","164","240","240","164","240","164","trueblood","0","w","240","164","164","240","240","164","39360","39360","39360","dc","null","null","null","null","null","null","[2,1]"
"","canvas-keyboard-response","229","324773","0.0-6.0-1.37","2","","","","","clear_screen","null","null","","","critical","c","d","t","164","240","240","164","240","164","trueblood","0","w","240","164","164","240","240","164","39360","39360","39360","dc","null","null","null","null","null","null","[2,1]"
"","canvas-keyboard-response","230","326108","0.0-6.0-2.37","2","","","","","rectangles","null","null","","","critical","c","d","t","164","240","240","164","240","164","trueblood","0","w","240","164","164","240","240","164","39360","39360","39360","dc","null","null","null","null","null","null","[2,1]"
"","canvas-keyboard-response","231","326267","0.0-6.0-3.37","2","","","","","clear_screen","null","null","","","critical","c","d","t","164","240","240","164","240","164","trueblood","0","w","240","164","164","240","240","164","39360","39360","39360","dc","null","null","null","null","null","null","[2,1]"
"","canvas-keyboard-response","232","327703","0.0-6.0-4.37","2","","","","","make choice","1427","2","","","critical","c","d","t","164","240","240","164","240","164","trueblood","0","w","240","164","164","240","240","164","39360","39360","39360","dc","null","null","null","null","null","null","[2,1]"
"","canvas-keyboard-response","233","327861","0.0-6.0-5.37","2","","","","","clear_screen","null","null","","","critical","c","d","t","164","240","240","164","240","164","trueblood","0","w","240","164","164","240","240","164","39360","39360","39360","dc","null","null","null","null","null","null","[2,1]"
"","canvas-keyboard-response","234","328062","0.0-6.0-0.38","2","","","","","pre trial waiting period","null","null","","","catch","sw","sh","l","180","200","234","148","238","211","spektor","null","null","null","null","null","null","null","null","null","null","null","","180","200","260","200","36000","52000","[2,3]"
"","canvas-keyboard-response","235","328223","0.0-6.0-1.38","2","","","","","clear_screen","null","null","","","catch","sw","sh","l","180","200","234","148","238","211","spektor","null","null","null","null","null","null","null","null","null","null","null","","180","200","260","200","36000","52000","[2,3]"
"","canvas-keyboard-response","236","329561","0.0-6.0-2.38","2","","","","","rectangles","null","null","","","catch","sw","sh","l","180","200","234","148","238","211","spektor","null","null","null","null","null","null","null","null","null","null","null","","180","200","260","200","36000","52000","[2,3]"
"","canvas-keyboard-response","237","329721","0.0-6.0-3.38","2","","","","","clear_screen","null","null","","","catch","sw","sh","l","180","200","234","148","238","211","spektor","null","null","null","null","null","null","null","null","null","null","null","","180","200","260","200","36000","52000","[2,3]"
"","canvas-keyboard-response","238","330536","0.0-6.0-4.38","2","","","","","make choice","804","3","","","catch","sw","sh","l","180","200","234","148","238","211","spektor","null","null","null","null","null","null","null","null","null","null","null","","180","200","260","200","36000","52000","[2,3]"
"","canvas-keyboard-response","239","330695","0.0-6.0-5.38","2","","","","","clear_screen","null","null","","","catch","sw","sh","l","180","200","234","148","238","211","spektor","null","null","null","null","null","null","null","null","null","null","null","","180","200","260","200","36000","52000","[2,3]"
"","canvas-keyboard-response","240","330896","0.0-6.0-0.39","2","","","","","pre trial waiting period","null","null","","","critical","c","d","t","240","164","158.0083","227.1683","164","240","spektor","0.09","h","164","240","240","164","158.0083","227.1683","39360","39360","35894.4834","dc","null","null","null","null","null","null","[2,1]"
"","canvas-keyboard-response","241","331056","0.0-6.0-1.39","2","","","","","clear_screen","null","null","","","critical","c","d","t","240","164","158.0083","227.1683","164","240","spektor","0.09","h","164","240","240","164","158.0083","227.1683","39360","39360","35894.4834","dc","null","null","null","null","null","null","[2,1]"
"","canvas-keyboard-response","242","332393","0.0-6.0-2.39","2","","","","","rectangles","null","null","","","critical","c","d","t","240","164","158.0083","227.1683","164","240","spektor","0.09","h","164","240","240","164","158.0083","227.1683","39360","39360","35894.4834","dc","null","null","null","null","null","null","[2,1]"
"","canvas-keyboard-response","243","332552","0.0-6.0-3.39","2","","","","","clear_screen","null","null","","","critical","c","d","t","240","164","158.0083","227.1683","164","240","spektor","0.09","h","164","240","240","164","158.0083","227.1683","39360","39360","35894.4834","dc","null","null","null","null","null","null","[2,1]"
"","canvas-keyboard-response","244","338408","0.0-6.0-4.39","2","","","","","make choice","5847","2","","","critical","c","d","t","240","164","158.0083","227.1683","164","240","spektor","0.09","h","164","240","240","164","158.0083","227.1683","39360","39360","35894.4834","dc","null","null","null","null","null","null","[2,1]"
"","canvas-keyboard-response","245","338566","0.0-6.0-5.39","2","","","","","clear_screen","null","null","","","critical","c","d","t","240","164","158.0083","227.1683","164","240","spektor","0.09","h","164","240","240","164","158.0083","227.1683","39360","39360","35894.4834","dc","null","null","null","null","null","null","[2,1]"
"","canvas-keyboard-response","246","338768","0.0-6.0-0.40","2","","","","","pre trial waiting period","null","null","","","catch","sh","sw","l","168","180","186","237","207","242","trueblood","null","null","null","null","null","null","null","null","null","null","null","","180","200","260","200","36000","52000","[1,3]"
"","canvas-keyboard-response","247","338929","0.0-6.0-1.40","2","","","","","clear_screen","null","null","","","catch","sh","sw","l","168","180","186","237","207","242","trueblood","null","null","null","null","null","null","null","null","null","null","null","","180","200","260","200","36000","52000","[1,3]"
"","canvas-keyboard-response","248","340266","0.0-6.0-2.40","2","","","","","rectangles","null","null","","","catch","sh","sw","l","168","180","186","237","207","242","trueblood","null","null","null","null","null","null","null","null","null","null","null","","180","200","260","200","36000","52000","[1,3]"
"","canvas-keyboard-response","249","340425","0.0-6.0-3.40","2","","","","","clear_screen","null","null","","","catch","sh","sw","l","168","180","186","237","207","242","trueblood","null","null","null","null","null","null","null","null","null","null","null","","180","200","260","200","36000","52000","[1,3]"
"","canvas-keyboard-response","250","341383","0.0-6.0-4.40","2","","","","","make choice","949","3","","","catch","sh","sw","l","168","180","186","237","207","242","trueblood","null","null","null","null","null","null","null","null","null","null","null","","180","200","260","200","36000","52000","[1,3]"
"","canvas-keyboard-response","251","341541","0.0-6.0-5.40","2","","","","","clear_screen","null","null","","","catch","sh","sw","l","168","180","186","237","207","242","trueblood","null","null","null","null","null","null","null","null","null","null","null","","180","200","260","200","36000","52000","[1,3]"
"","canvas-keyboard-response","252","341742","0.0-6.0-0.41","2","","","","","pre trial waiting period","null","null","","","critical","t","d","c","240","164","240","164","164","240","spektor","0","w","240","164","164","240","240","164","39360","39360","39360","tc","null","null","null","null","null","null","[1,3]"
"","canvas-keyboard-response","253","341902","0.0-6.0-1.41","2","","","","","clear_screen","null","null","","","critical","t","d","c","240","164","240","164","164","240","spektor","0","w","240","164","164","240","240","164","39360","39360","39360","tc","null","null","null","null","null","null","[1,3]"
"","canvas-keyboard-response","254","343238","0.0-6.0-2.41","2","","","","","rectangles","null","null","","","critical","t","d","c","240","164","240","164","164","240","spektor","0","w","240","164","164","240","240","164","39360","39360","39360","tc","null","null","null","null","null","null","[1,3]"
"","canvas-keyboard-response","255","343398","0.0-6.0-3.41","2","","","","","clear_screen","null","null","","","critical","t","d","c","240","164","240","164","164","240","spektor","0","w","240","164","164","240","240","164","39360","39360","39360","tc","null","null","null","null","null","null","[1,3]"
"","canvas-keyboard-response","256","344248","0.0-6.0-4.41","2","","","","","make choice","842","3","","","critical","t","d","c","240","164","240","164","164","240","spektor","0","w","240","164","164","240","240","164","39360","39360","39360","tc","null","null","null","null","null","null","[1,3]"
"","canvas-keyboard-response","257","344406","0.0-6.0-5.41","2","","","","","clear_screen","null","null","","","critical","t","d","c","240","164","240","164","164","240","spektor","0","w","240","164","164","240","240","164","39360","39360","39360","tc","null","null","null","null","null","null","[1,3]"
"","canvas-keyboard-response","258","344608","0.0-6.0-0.42","2","","","","","pre trial waiting period","null","null","","","critical","c","d","t","164","240","232.8713","160.6713","240","164","trueblood","0.05","w","240","164","164","240","232.8713","160.6713","39360","39360","37415.7294","tc","null","null","null","null","null","null","[3,1]"
"","canvas-keyboard-response","259","344766","0.0-6.0-1.42","2","","","","","clear_screen","null","null","","","critical","c","d","t","164","240","232.8713","160.6713","240","164","trueblood","0.05","w","240","164","164","240","232.8713","160.6713","39360","39360","37415.7294","tc","null","null","null","null","null","null","[3,1]"
"","canvas-keyboard-response","260","346102","0.0-6.0-2.42","2","","","","","rectangles","null","null","","","critical","c","d","t","164","240","232.8713","160.6713","240","164","trueblood","0.05","w","240","164","164","240","232.8713","160.6713","39360","39360","37415.7294","tc","null","null","null","null","null","null","[3,1]"
"","canvas-keyboard-response","261","346262","0.0-6.0-3.42","2","","","","","clear_screen","null","null","","","critical","c","d","t","164","240","232.8713","160.6713","240","164","trueblood","0.05","w","240","164","164","240","232.8713","160.6713","39360","39360","37415.7294","tc","null","null","null","null","null","null","[3,1]"
"","canvas-keyboard-response","262","346999","0.0-6.0-4.42","2","","","","","make choice","729","1","","","critical","c","d","t","164","240","232.8713","160.6713","240","164","trueblood","0.05","w","240","164","164","240","232.8713","160.6713","39360","39360","37415.7294","tc","null","null","null","null","null","null","[3,1]"
"","canvas-keyboard-response","263","347157","0.0-6.0-5.42","2","","","","","clear_screen","null","null","","","critical","c","d","t","164","240","232.8713","160.6713","240","164","trueblood","0.05","w","240","164","164","240","232.8713","160.6713","39360","39360","37415.7294","tc","null","null","null","null","null","null","[3,1]"
"","canvas-keyboard-response","264","347358","0.0-6.0-0.43","2","","","","","pre trial waiting period","null","null","","","catch","sh","sw","l","196","169","197","229","205","226","trueblood","null","null","null","null","null","null","null","null","null","null","null","","180","200","260","200","36000","52000","[2,3]"
"","canvas-keyboard-response","265","347517","0.0-6.0-1.43","2","","","","","clear_screen","null","null","","","catch","sh","sw","l","196","169","197","229","205","226","trueblood","null","null","null","null","null","null","null","null","null","null","null","","180","200","260","200","36000","52000","[2,3]"
"","canvas-keyboard-response","266","348853","0.0-6.0-2.43","2","","","","","rectangles","null","null","","","catch","sh","sw","l","196","169","197","229","205","226","trueblood","null","null","null","null","null","null","null","null","null","null","null","","180","200","260","200","36000","52000","[2,3]"
"","canvas-keyboard-response","267","349011","0.0-6.0-3.43","2","","","","","clear_screen","null","null","","","catch","sh","sw","l","196","169","197","229","205","226","trueblood","null","null","null","null","null","null","null","null","null","null","null","","180","200","260","200","36000","52000","[2,3]"
"","canvas-keyboard-response","268","350295","0.0-6.0-4.43","2","","","","","make choice","1275","3","","","catch","sh","sw","l","196","169","197","229","205","226","trueblood","null","null","null","null","null","null","null","null","null","null","null","","180","200","260","200","36000","52000","[2,3]"
"","canvas-keyboard-response","269","350454","0.0-6.0-5.43","2","","","","","clear_screen","null","null","","","catch","sh","sw","l","196","169","197","229","205","226","trueblood","null","null","null","null","null","null","null","null","null","null","null","","180","200","260","200","36000","52000","[2,3]"
"","canvas-keyboard-response","270","350654","0.0-6.0-0.44","2","","","","","pre trial waiting period","null","null","","","critical","d","t","c","220.0396","154.6796","240","164","164","240","spektor","0.14","w","240","164","164","240","220.0396","154.6796","39360","39360","34035.6388","tc","null","null","null","null","null","null","[2,3]"
"","canvas-keyboard-response","271","350814","0.0-6.0-1.44","2","","","","","clear_screen","null","null","","","critical","d","t","c","220.0396","154.6796","240","164","164","240","spektor","0.14","w","240","164","164","240","220.0396","154.6796","39360","39360","34035.6388","tc","null","null","null","null","null","null","[2,3]"
"","canvas-keyboard-response","272","352149","0.0-6.0-2.44","2","","","","","rectangles","null","null","","","critical","d","t","c","220.0396","154.6796","240","164","164","240","spektor","0.14","w","240","164","164","240","220.0396","154.6796","39360","39360","34035.6388","tc","null","null","null","null","null","null","[2,3]"
"","canvas-keyboard-response","273","352309","0.0-6.0-3.44","2","","","","","clear_screen","null","null","","","critical","d","t","c","220.0396","154.6796","240","164","164","240","spektor","0.14","w","240","164","164","240","220.0396","154.6796","39360","39360","34035.6388","tc","null","null","null","null","null","null","[2,3]"
"","canvas-keyboard-response","274","359039","0.0-6.0-4.44","2","","","","","make choice","6719","2","","","critical","d","t","c","220.0396","154.6796","240","164","164","240","spektor","0.14","w","240","164","164","240","220.0396","154.6796","39360","39360","34035.6388","tc","null","null","null","null","null","null","[2,3]"
"","canvas-keyboard-response","275","359198","0.0-6.0-5.44","2","","","","","clear_screen","null","null","","","critical","d","t","c","220.0396","154.6796","240","164","164","240","spektor","0.14","w","240","164","164","240","220.0396","154.6796","39360","39360","34035.6388","tc","null","null","null","null","null","null","[2,3]"
"","canvas-keyboard-response","276","359398","0.0-6.0-0.45","2","","","","","pre trial waiting period","null","null","","","critical","t","c","d","164","240","240","164","162.6685","237.1485","spektor","0.02","h","164","240","240","164","162.6685","237.1485","39360","39360","38576.5967","tc","null","null","null","null","null","null","[1,2]"
"","canvas-keyboard-response","277","359558","0.0-6.0-1.45","2","","","","","clear_screen","null","null","","","critical","t","c","d","164","240","240","164","162.6685","237.1485","spektor","0.02","h","164","240","240","164","162.6685","237.1485","39360","39360","38576.5967","tc","null","null","null","null","null","null","[1,2]"
"","canvas-keyboard-response","278","360893","0.0-6.0-2.45","2","","","","","rectangles","null","null","","","critical","t","c","d","164","240","240","164","162.6685","237.1485","spektor","0.02","h","164","240","240","164","162.6685","237.1485","39360","39360","38576.5967","tc","null","null","null","null","null","null","[1,2]"
"","canvas-keyboard-response","279","361050","0.0-6.0-3.45","2","","","","","clear_screen","null","null","","","critical","t","c","d","164","240","240","164","162.6685","237.1485","spektor","0.02","h","164","240","240","164","162.6685","237.1485","39360","39360","38576.5967","tc","null","null","null","null","null","null","[1,2]"
"","canvas-keyboard-response","280","365376","0.0-6.0-4.45","2","","","","","make choice","4316","2","","","critical","t","c","d","164","240","240","164","162.6685","237.1485","spektor","0.02","h","164","240","240","164","162.6685","237.1485","39360","39360","38576.5967","tc","null","null","null","null","null","null","[1,2]"
"","canvas-keyboard-response","281","365537","0.0-6.0-5.45","2","","","","","clear_screen","null","null","","","critical","t","c","d","164","240","240","164","162.6685","237.1485","spektor","0.02","h","164","240","240","164","162.6685","237.1485","39360","39360","38576.5967","tc","null","null","null","null","null","null","[1,2]"
"","canvas-keyboard-response","282","365740","0.0-6.0-0.46","2","","","","","pre trial waiting period","null","null","","","catch","sh","sw","l","165","172","146","162","261","168","spektor","null","null","null","null","null","null","null","null","null","null","null","","180","200","260","200","36000","52000","[2,3]"
"","canvas-keyboard-response","283","365902","0.0-6.0-1.46","2","","","","","clear_screen","null","null","","","catch","sh","sw","l","165","172","146","162","261","168","spektor","null","null","null","null","null","null","null","null","null","null","null","","180","200","260","200","36000","52000","[2,3]"
"","canvas-keyboard-response","284","367240","0.0-6.0-2.46","2","","","","","rectangles","null","null","","","catch","sh","sw","l","165","172","146","162","261","168","spektor","null","null","null","null","null","null","null","null","null","null","null","","180","200","260","200","36000","52000","[2,3]"
"","canvas-keyboard-response","285","367399","0.0-6.0-3.46","2","","","","","clear_screen","null","null","","","catch","sh","sw","l","165","172","146","162","261","168","spektor","null","null","null","null","null","null","null","null","null","null","null","","180","200","260","200","36000","52000","[2,3]"
"","canvas-keyboard-response","286","368615","0.0-6.0-4.46","2","","","","","make choice","1207","2","","","catch","sh","sw","l","165","172","146","162","261","168","spektor","null","null","null","null","null","null","null","null","null","null","null","","180","200","260","200","36000","52000","[2,3]"
"","canvas-keyboard-response","287","368775","0.0-6.0-5.46","2","","","","","clear_screen","null","null","","","catch","sh","sw","l","165","172","146","162","261","168","spektor","null","null","null","null","null","null","null","null","null","null","null","","180","200","260","200","36000","52000","[2,3]"
"","canvas-keyboard-response","288","368976","0.0-6.0-0.47","2","","","","","pre trial waiting period","null","null","","","critical","c","t","d","164","240","240","164","232.8713","160.6713","trueblood","0.05","w","240","164","164","240","232.8713","160.6713","39360","39360","37415.7294","td","null","null","null","null","null","null","[2,3]"
"","canvas-keyboard-response","289","369137","0.0-6.0-1.47","2","","","","","clear_screen","null","null","","","critical","c","t","d","164","240","240","164","232.8713","160.6713","trueblood","0.05","w","240","164","164","240","232.8713","160.6713","39360","39360","37415.7294","td","null","null","null","null","null","null","[2,3]"
"","canvas-keyboard-response","290","370472","0.0-6.0-2.47","2","","","","","rectangles","null","null","","","critical","c","t","d","164","240","240","164","232.8713","160.6713","trueblood","0.05","w","240","164","164","240","232.8713","160.6713","39360","39360","37415.7294","td","null","null","null","null","null","null","[2,3]"
"","canvas-keyboard-response","291","370632","0.0-6.0-3.47","2","","","","","clear_screen","null","null","","","critical","c","t","d","164","240","240","164","232.8713","160.6713","trueblood","0.05","w","240","164","164","240","232.8713","160.6713","39360","39360","37415.7294","td","null","null","null","null","null","null","[2,3]"
"","canvas-keyboard-response","292","371238","0.0-6.0-4.47","2","","","","","make choice","597","2","","","critical","c","t","d","164","240","240","164","232.8713","160.6713","trueblood","0.05","w","240","164","164","240","232.8713","160.6713","39360","39360","37415.7294","td","null","null","null","null","null","null","[2,3]"
"","canvas-keyboard-response","293","371398","0.0-6.0-5.47","2","","","","","clear_screen","null","null","","","critical","c","t","d","164","240","240","164","232.8713","160.6713","trueblood","0.05","w","240","164","164","240","232.8713","160.6713","39360","39360","37415.7294","td","null","null","null","null","null","null","[2,3]"
"","canvas-keyboard-response","294","371599","0.0-6.0-0.48","2","","","","","pre trial waiting period","null","null","","","critical","d","t","c","232.8713","160.6713","240","164","164","240","spektor","0.05","w","240","164","164","240","232.8713","160.6713","39360","39360","37415.7294","dc","null","null","null","null","null","null","[1,3]"
"","canvas-keyboard-response","295","371759","0.0-6.0-1.48","2","","","","","clear_screen","null","null","","","critical","d","t","c","232.8713","160.6713","240","164","164","240","spektor","0.05","w","240","164","164","240","232.8713","160.6713","39360","39360","37415.7294","dc","null","null","null","null","null","null","[1,3]"
"","canvas-keyboard-response","296","373095","0.0-6.0-2.48","2","","","","","rectangles","null","null","","","critical","d","t","c","232.8713","160.6713","240","164","164","240","spektor","0.05","w","240","164","164","240","232.8713","160.6713","39360","39360","37415.7294","dc","null","null","null","null","null","null","[1,3]"
"","canvas-keyboard-response","297","373255","0.0-6.0-3.48","2","","","","","clear_screen","null","null","","","critical","d","t","c","232.8713","160.6713","240","164","164","240","spektor","0.05","w","240","164","164","240","232.8713","160.6713","39360","39360","37415.7294","dc","null","null","null","null","null","null","[1,3]"
"","canvas-keyboard-response","298","375095","0.0-6.0-4.48","2","","","","","make choice","1832","3","","","critical","d","t","c","232.8713","160.6713","240","164","164","240","spektor","0.05","w","240","164","164","240","232.8713","160.6713","39360","39360","37415.7294","dc","null","null","null","null","null","null","[1,3]"
"","canvas-keyboard-response","299","375253","0.0-6.0-5.48","2","","","","","clear_screen","null","null","","","critical","d","t","c","232.8713","160.6713","240","164","164","240","spektor","0.05","w","240","164","164","240","232.8713","160.6713","39360","39360","37415.7294","dc","null","null","null","null","null","null","[1,3]"
"","canvas-keyboard-response","300","375454","0.0-6.0-0.49","2","","","","","pre trial waiting period","null","null","","","critical","c","t","d","164","240","240","164","227.1683","158.0083","spektor","0.09","w","240","164","164","240","227.1683","158.0083","39360","39360","35894.4834","dc","null","null","null","null","null","null","[3,1]"
"","canvas-keyboard-response","301","375615","0.0-6.0-1.49","2","","","","","clear_screen","null","null","","","critical","c","t","d","164","240","240","164","227.1683","158.0083","spektor","0.09","w","240","164","164","240","227.1683","158.0083","39360","39360","35894.4834","dc","null","null","null","null","null","null","[3,1]"
"","canvas-keyboard-response","302","376950","0.0-6.0-2.49","2","","","","","rectangles","null","null","","","critical","c","t","d","164","240","240","164","227.1683","158.0083","spektor","0.09","w","240","164","164","240","227.1683","158.0083","39360","39360","35894.4834","dc","null","null","null","null","null","null","[3,1]"
"","canvas-keyboard-response","303","377109","0.0-6.0-3.49","2","","","","","clear_screen","null","null","","","critical","c","t","d","164","240","240","164","227.1683","158.0083","spektor","0.09","w","240","164","164","240","227.1683","158.0083","39360","39360","35894.4834","dc","null","null","null","null","null","null","[3,1]"
"","canvas-keyboard-response","304","381687","0.0-6.0-4.49","2","","","","","make choice","4569","3","","","critical","c","t","d","164","240","240","164","227.1683","158.0083","spektor","0.09","w","240","164","164","240","227.1683","158.0083","39360","39360","35894.4834","dc","null","null","null","null","null","null","[3,1]"
"","canvas-keyboard-response","305","381845","0.0-6.0-5.49","2","","","","","clear_screen","null","null","","","critical","c","t","d","164","240","240","164","227.1683","158.0083","spektor","0.09","w","240","164","164","240","227.1683","158.0083","39360","39360","35894.4834","dc","null","null","null","null","null","null","[3,1]"
"","canvas-keyboard-response","306","382047","0.0-6.0-0.50","2","","","","","pre trial waiting period","null","null","","","critical","c","d","t","240","164","154.6796","220.0396","164","240","spektor","0.14","h","164","240","240","164","154.6796","220.0396","39360","39360","34035.6388","tc","null","null","null","null","null","null","[3,1]"
"","canvas-keyboard-response","307","382205","0.0-6.0-1.50","2","","","","","clear_screen","null","null","","","critical","c","d","t","240","164","154.6796","220.0396","164","240","spektor","0.14","h","164","240","240","164","154.6796","220.0396","39360","39360","34035.6388","tc","null","null","null","null","null","null","[3,1]"
