"success","trial_type","trial_index","time_elapsed","internal_node_id","sub_n","timeout","failed_images","failed_audio","failed_video","screen_id","rt","response","stimulus","view_history","trial","r1","r2","r3","w1","h1","w2","h2","w3","h3","display","tdd","tdo","tw","th","cw","ch","dw","dh","ta","ca","da","probe","csls","csss","clls","clss","sa","la","probe_rects"
"true","fullscreen","0","4064","0.0-0.0","10","","","","","","","","","","","","","","","","","","","","","","","","","","","","","","","","","","","","","","",""
"true","preload","1","4079","0.0-1.0","10","false","[]","[]","[]","img preload","","","","","","","","","","","","","","","","","","","","","","","","","","","","","","","","","",""
"","survey-html-form","2","18095","0.0-2.0","10","","","","","enter-sub-number","14008","{""response"":""10""}","","","","","","","","","","","","","","","","","","","","","","","","","","","","","","","",""
"","image-button-response","3","33016","0.0-3.0","10","","","","","","14853","0","consent.png","","","","","","","","","","","","","","","","","","","","","","","","","","","","","","",""
"","html-button-response","4","41927","0.0-4.0","10","","","","","intro mssg","8906","0","<div style= ""font-size:25px;"" <p> <strong> Welcome! </strong><br> <p style=""color:#8B0000; font-size:25px;""><strong> Please do NOT exit full screen until you are done with the experiment. </strong> </p><p style=""font-size:25px;color:#8B0000;""> <strong> Your data will be lost <br> if you try to go back or refresh the page after the experiment starts. Feel free to click ""previous"" during the instructions, however.</strong> </p><br><p> <strong> Thanks in advance for your contribution to our research! </strong></p>","","","","","","","","","","","","","","","","","","","","","","","","","","","","","","",""
"","instructions","5","186904","0.0-5.0","10","","","","","instructions","144972","","","[{""page_index"":0,""viewing_time"":21163},{""page_index"":1,""viewing_time"":19520},{""page_index"":2,""viewing_time"":10568},{""page_index"":3,""viewing_time"":34303},{""page_index"":2,""viewing_time"":1465},{""page_index"":1,""viewing_time"":5776},{""page_index"":2,""viewing_time"":2056},{""page_index"":3,""viewing_time"":8559},{""page_index"":4,""viewing_time"":12649},{""page_index"":5,""viewing_time"":2024},{""page_index"":4,""viewing_time"":3040},{""page_index"":3,""viewing_time"":3503},{""page_index"":4,""viewing_time"":11513},{""page_index"":5,""viewing_time"":2880},{""page_index"":6,""viewing_time"":2992},{""page_index"":7,""viewing_time"":2961}]","","","","","","","","","","","","","","","","","","","","","","","","","","","","","",""
"","canvas-keyboard-response","6","187109","0.0-6.0-0.0","10","","","","","pre trial waiting period","null","null","","","catch","sw","l","sh","180","200","227","205","172","186","trueblood","null","null","null","null","null","null","null","null","null","null","null","","180","200","260","200","36000","52000","[2,3]"
"","canvas-keyboard-response","7","187274","0.0-6.0-1.0","10","","","","","clear_screen","null","null","","","catch","sw","l","sh","180","200","227","205","172","186","trueblood","null","null","null","null","null","null","null","null","null","null","null","","180","200","260","200","36000","52000","[2,3]"
"","canvas-keyboard-response","8","188612","0.0-6.0-2.0","10","","","","","rectangles","null","null","","","catch","sw","l","sh","180","200","227","205","172","186","trueblood","null","null","null","null","null","null","null","null","null","null","null","","180","200","260","200","36000","52000","[2,3]"
"","canvas-keyboard-response","9","188771","0.0-6.0-3.0","10","","","","","clear_screen","null","null","","","catch","sw","l","sh","180","200","227","205","172","186","trueblood","null","null","null","null","null","null","null","null","null","null","null","","180","200","260","200","36000","52000","[2,3]"
"","canvas-keyboard-response","10","193552","0.0-6.0-4.0","10","","","","","make choice","4771","2","","","catch","sw","l","sh","180","200","227","205","172","186","trueblood","null","null","null","null","null","null","null","null","null","null","null","","180","200","260","200","36000","52000","[2,3]"
"","canvas-keyboard-response","11","193713","0.0-6.0-5.0","10","","","","","clear_screen","null","null","","","catch","sw","l","sh","180","200","227","205","172","186","trueblood","null","null","null","null","null","null","null","null","null","null","null","","180","200","260","200","36000","52000","[2,3]"
"","canvas-keyboard-response","12","193915","0.0-6.0-0.1","10","","","","","pre trial waiting period","null","null","","","critical","t","d","c","164","240","162.6685","237.1485","240","164","trueblood","0.02","h","164","240","240","164","162.6685","237.1485","39360","39360","38576.5967","td","null","null","null","null","null","null","[1,2]"
"","canvas-keyboard-response","13","194075","0.0-6.0-1.1","10","","","","","clear_screen","null","null","","","critical","t","d","c","164","240","162.6685","237.1485","240","164","trueblood","0.02","h","164","240","240","164","162.6685","237.1485","39360","39360","38576.5967","td","null","null","null","null","null","null","[1,2]"
"","canvas-keyboard-response","14","195413","0.0-6.0-2.1","10","","","","","rectangles","null","null","","","critical","t","d","c","164","240","162.6685","237.1485","240","164","trueblood","0.02","h","164","240","240","164","162.6685","237.1485","39360","39360","38576.5967","td","null","null","null","null","null","null","[1,2]"
"","canvas-keyboard-response","15","195576","0.0-6.0-3.1","10","","","","","clear_screen","null","null","","","critical","t","d","c","164","240","162.6685","237.1485","240","164","trueblood","0.02","h","164","240","240","164","162.6685","237.1485","39360","39360","38576.5967","td","null","null","null","null","null","null","[1,2]"
"","canvas-keyboard-response","16","198279","0.0-6.0-4.1","10","","","","","make choice","2696","1","","","critical","t","d","c","164","240","162.6685","237.1485","240","164","trueblood","0.02","h","164","240","240","164","162.6685","237.1485","39360","39360","38576.5967","td","null","null","null","null","null","null","[1,2]"
"","canvas-keyboard-response","17","198448","0.0-6.0-5.1","10","","","","","clear_screen","null","null","","","critical","t","d","c","164","240","162.6685","237.1485","240","164","trueblood","0.02","h","164","240","240","164","162.6685","237.1485","39360","39360","38576.5967","td","null","null","null","null","null","null","[1,2]"
"","canvas-keyboard-response","18","198649","0.0-6.0-0.2","10","","","","","pre trial waiting period","null","null","","","critical","t","d","c","240","164","220.0396","154.6796","164","240","spektor","0.14","w","240","164","164","240","220.0396","154.6796","39360","39360","34035.6388","dc","null","null","null","null","null","null","[2,3]"
"","canvas-keyboard-response","19","198812","0.0-6.0-1.2","10","","","","","clear_screen","null","null","","","critical","t","d","c","240","164","220.0396","154.6796","164","240","spektor","0.14","w","240","164","164","240","220.0396","154.6796","39360","39360","34035.6388","dc","null","null","null","null","null","null","[2,3]"
"","canvas-keyboard-response","20","200149","0.0-6.0-2.2","10","","","","","rectangles","null","null","","","critical","t","d","c","240","164","220.0396","154.6796","164","240","spektor","0.14","w","240","164","164","240","220.0396","154.6796","39360","39360","34035.6388","dc","null","null","null","null","null","null","[2,3]"
"","canvas-keyboard-response","21","200309","0.0-6.0-3.2","10","","","","","clear_screen","null","null","","","critical","t","d","c","240","164","220.0396","154.6796","164","240","spektor","0.14","w","240","164","164","240","220.0396","154.6796","39360","39360","34035.6388","dc","null","null","null","null","null","null","[2,3]"
"","canvas-keyboard-response","22","204343","0.0-6.0-4.2","10","","","","","make choice","4021","2","","","critical","t","d","c","240","164","220.0396","154.6796","164","240","spektor","0.14","w","240","164","164","240","220.0396","154.6796","39360","39360","34035.6388","dc","null","null","null","null","null","null","[2,3]"
"","canvas-keyboard-response","23","204502","0.0-6.0-5.2","10","","","","","clear_screen","null","null","","","critical","t","d","c","240","164","220.0396","154.6796","164","240","spektor","0.14","w","240","164","164","240","220.0396","154.6796","39360","39360","34035.6388","dc","null","null","null","null","null","null","[2,3]"
"","canvas-keyboard-response","24","204705","0.0-6.0-0.3","10","","","","","pre trial waiting period","null","null","","","catch","sh","l","sw","211","185","207","298","180","223","trueblood","null","null","null","null","null","null","null","null","null","null","null","","180","200","260","200","36000","52000","[2,3]"
"","canvas-keyboard-response","25","204865","0.0-6.0-1.3","10","","","","","clear_screen","null","null","","","catch","sh","l","sw","211","185","207","298","180","223","trueblood","null","null","null","null","null","null","null","null","null","null","null","","180","200","260","200","36000","52000","[2,3]"
"","canvas-keyboard-response","26","206202","0.0-6.0-2.3","10","","","","","rectangles","null","null","","","catch","sh","l","sw","211","185","207","298","180","223","trueblood","null","null","null","null","null","null","null","null","null","null","null","","180","200","260","200","36000","52000","[2,3]"
"","canvas-keyboard-response","27","206365","0.0-6.0-3.3","10","","","","","clear_screen","null","null","","","catch","sh","l","sw","211","185","207","298","180","223","trueblood","null","null","null","null","null","null","null","null","null","null","null","","180","200","260","200","36000","52000","[2,3]"
"","canvas-keyboard-response","28","209407","0.0-6.0-4.3","10","","","","","make choice","3032","2","","","catch","sh","l","sw","211","185","207","298","180","223","trueblood","null","null","null","null","null","null","null","null","null","null","null","","180","200","260","200","36000","52000","[2,3]"
"","canvas-keyboard-response","29","209566","0.0-6.0-5.3","10","","","","","clear_screen","null","null","","","catch","sh","l","sw","211","185","207","298","180","223","trueblood","null","null","null","null","null","null","null","null","null","null","null","","180","200","260","200","36000","52000","[2,3]"
"","canvas-keyboard-response","30","209768","0.0-6.0-0.4","10","","","","","pre trial waiting period","null","null","","","critical","c","d","t","164","240","232.8713","160.6713","240","164","trueblood","0.05","w","240","164","164","240","232.8713","160.6713","39360","39360","37415.7294","tc","null","null","null","null","null","null","[3,1]"
"","canvas-keyboard-response","31","209931","0.0-6.0-1.4","10","","","","","clear_screen","null","null","","","critical","c","d","t","164","240","232.8713","160.6713","240","164","trueblood","0.05","w","240","164","164","240","232.8713","160.6713","39360","39360","37415.7294","tc","null","null","null","null","null","null","[3,1]"
"","canvas-keyboard-response","32","211270","0.0-6.0-2.4","10","","","","","rectangles","null","null","","","critical","c","d","t","164","240","232.8713","160.6713","240","164","trueblood","0.05","w","240","164","164","240","232.8713","160.6713","39360","39360","37415.7294","tc","null","null","null","null","null","null","[3,1]"
"","canvas-keyboard-response","33","211433","0.0-6.0-3.4","10","","","","","clear_screen","null","null","","","critical","c","d","t","164","240","232.8713","160.6713","240","164","trueblood","0.05","w","240","164","164","240","232.8713","160.6713","39360","39360","37415.7294","tc","null","null","null","null","null","null","[3,1]"
"","canvas-keyboard-response","34","213079","0.0-6.0-4.4","10","","","","","make choice","1637","1","","","critical","c","d","t","164","240","232.8713","160.6713","240","164","trueblood","0.05","w","240","164","164","240","232.8713","160.6713","39360","39360","37415.7294","tc","null","null","null","null","null","null","[3,1]"
"","canvas-keyboard-response","35","213239","0.0-6.0-5.4","10","","","","","clear_screen","null","null","","","critical","c","d","t","164","240","232.8713","160.6713","240","164","trueblood","0.05","w","240","164","164","240","232.8713","160.6713","39360","39360","37415.7294","tc","null","null","null","null","null","null","[3,1]"
"","canvas-keyboard-response","36","213440","0.0-6.0-0.5","10","","","","","pre trial waiting period","null","null","","","critical","c","d","t","240","164","158.0083","227.1683","164","240","spektor","0.09","h","164","240","240","164","158.0083","227.1683","39360","39360","35894.4834","dc","null","null","null","null","null","null","[2,1]"
"","canvas-keyboard-response","37","213600","0.0-6.0-1.5","10","","","","","clear_screen","null","null","","","critical","c","d","t","240","164","158.0083","227.1683","164","240","spektor","0.09","h","164","240","240","164","158.0083","227.1683","39360","39360","35894.4834","dc","null","null","null","null","null","null","[2,1]"
"","canvas-keyboard-response","38","214932","0.0-6.0-2.5","10","","","","","rectangles","null","null","","","critical","c","d","t","240","164","158.0083","227.1683","164","240","spektor","0.09","h","164","240","240","164","158.0083","227.1683","39360","39360","35894.4834","dc","null","null","null","null","null","null","[2,1]"
"","canvas-keyboard-response","39","215091","0.0-6.0-3.5","10","","","","","clear_screen","null","null","","","critical","c","d","t","240","164","158.0083","227.1683","164","240","spektor","0.09","h","164","240","240","164","158.0083","227.1683","39360","39360","35894.4834","dc","null","null","null","null","null","null","[2,1]"
"","canvas-keyboard-response","40","215503","0.0-6.0-4.5","10","","","","","make choice","404","2","","","critical","c","d","t","240","164","158.0083","227.1683","164","240","spektor","0.09","h","164","240","240","164","158.0083","227.1683","39360","39360","35894.4834","dc","null","null","null","null","null","null","[2,1]"
"","canvas-keyboard-response","41","215663","0.0-6.0-5.5","10","","","","","clear_screen","null","null","","","critical","c","d","t","240","164","158.0083","227.1683","164","240","spektor","0.09","h","164","240","240","164","158.0083","227.1683","39360","39360","35894.4834","dc","null","null","null","null","null","null","[2,1]"
"","canvas-keyboard-response","42","215865","0.0-6.0-0.6","10","","","","","pre trial waiting period","null","null","","","catch","l","sh","sw","263","173","234","152","163","206","trueblood","null","null","null","null","null","null","null","null","null","null","null","","180","200","260","200","36000","52000","[1,2]"
"","canvas-keyboard-response","43","216025","0.0-6.0-1.6","10","","","","","clear_screen","null","null","","","catch","l","sh","sw","263","173","234","152","163","206","trueblood","null","null","null","null","null","null","null","null","null","null","null","","180","200","260","200","36000","52000","[1,2]"
"","canvas-keyboard-response","44","217366","0.0-6.0-2.6","10","","","","","rectangles","null","null","","","catch","l","sh","sw","263","173","234","152","163","206","trueblood","null","null","null","null","null","null","null","null","null","null","null","","180","200","260","200","36000","52000","[1,2]"
"","canvas-keyboard-response","45","217526","0.0-6.0-3.6","10","","","","","clear_screen","null","null","","","catch","l","sh","sw","263","173","234","152","163","206","trueblood","null","null","null","null","null","null","null","null","null","null","null","","180","200","260","200","36000","52000","[1,2]"
"","canvas-keyboard-response","46","220839","0.0-6.0-4.6","10","","","","","make choice","3304","2","","","catch","l","sh","sw","263","173","234","152","163","206","trueblood","null","null","null","null","null","null","null","null","null","null","null","","180","200","260","200","36000","52000","[1,2]"
"","canvas-keyboard-response","47","220996","0.0-6.0-5.6","10","","","","","clear_screen","null","null","","","catch","l","sh","sw","263","173","234","152","163","206","trueblood","null","null","null","null","null","null","null","null","null","null","null","","180","200","260","200","36000","52000","[1,2]"
"","canvas-keyboard-response","48","221198","0.0-6.0-0.7","10","","","","","pre trial waiting period","null","null","","","critical","t","c","d","240","164","164","240","220.0396","154.6796","trueblood","0.14","w","240","164","164","240","220.0396","154.6796","39360","39360","34035.6388","tc","null","null","null","null","null","null","[1,2]"
"","canvas-keyboard-response","49","221357","0.0-6.0-1.7","10","","","","","clear_screen","null","null","","","critical","t","c","d","240","164","164","240","220.0396","154.6796","trueblood","0.14","w","240","164","164","240","220.0396","154.6796","39360","39360","34035.6388","tc","null","null","null","null","null","null","[1,2]"
"","canvas-keyboard-response","50","222695","0.0-6.0-2.7","10","","","","","rectangles","null","null","","","critical","t","c","d","240","164","164","240","220.0396","154.6796","trueblood","0.14","w","240","164","164","240","220.0396","154.6796","39360","39360","34035.6388","tc","null","null","null","null","null","null","[1,2]"
"","canvas-keyboard-response","51","222858","0.0-6.0-3.7","10","","","","","clear_screen","null","null","","","critical","t","c","d","240","164","164","240","220.0396","154.6796","trueblood","0.14","w","240","164","164","240","220.0396","154.6796","39360","39360","34035.6388","tc","null","null","null","null","null","null","[1,2]"
"","canvas-keyboard-response","52","225599","0.0-6.0-4.7","10","","","","","make choice","2732","2","","","critical","t","c","d","240","164","164","240","220.0396","154.6796","trueblood","0.14","w","240","164","164","240","220.0396","154.6796","39360","39360","34035.6388","tc","null","null","null","null","null","null","[1,2]"
"","canvas-keyboard-response","53","225759","0.0-6.0-5.7","10","","","","","clear_screen","null","null","","","critical","t","c","d","240","164","164","240","220.0396","154.6796","trueblood","0.14","w","240","164","164","240","220.0396","154.6796","39360","39360","34035.6388","tc","null","null","null","null","null","null","[1,2]"
"","canvas-keyboard-response","54","225961","0.0-6.0-0.8","10","","","","","pre trial waiting period","null","null","","","catch","sw","l","sh","180","200","239","270","169","141","spektor","null","null","null","null","null","null","null","null","null","null","null","","180","200","260","200","36000","52000","[1,2]"
"","canvas-keyboard-response","55","226120","0.0-6.0-1.8","10","","","","","clear_screen","null","null","","","catch","sw","l","sh","180","200","239","270","169","141","spektor","null","null","null","null","null","null","null","null","null","null","null","","180","200","260","200","36000","52000","[1,2]"
"","canvas-keyboard-response","56","227455","0.0-6.0-2.8","10","","","","","rectangles","null","null","","","catch","sw","l","sh","180","200","239","270","169","141","spektor","null","null","null","null","null","null","null","null","null","null","null","","180","200","260","200","36000","52000","[1,2]"
"","canvas-keyboard-response","57","227618","0.0-6.0-3.8","10","","","","","clear_screen","null","null","","","catch","sw","l","sh","180","200","239","270","169","141","spektor","null","null","null","null","null","null","null","null","null","null","null","","180","200","260","200","36000","52000","[1,2]"
"","canvas-keyboard-response","58","228983","0.0-6.0-4.8","10","","","","","make choice","1358","2","","","catch","sw","l","sh","180","200","239","270","169","141","spektor","null","null","null","null","null","null","null","null","null","null","null","","180","200","260","200","36000","52000","[1,2]"
"","canvas-keyboard-response","59","229144","0.0-6.0-5.8","10","","","","","clear_screen","null","null","","","catch","sw","l","sh","180","200","239","270","169","141","spektor","null","null","null","null","null","null","null","null","null","null","null","","180","200","260","200","36000","52000","[1,2]"
"","canvas-keyboard-response","60","229346","0.0-6.0-0.9","10","","","","","pre trial waiting period","null","null","","","critical","d","c","t","220.0396","154.6796","164","240","240","164","spektor","0.14","w","240","164","164","240","220.0396","154.6796","39360","39360","34035.6388","tc","null","null","null","null","null","null","[3,2]"
"","canvas-keyboard-response","61","229507","0.0-6.0-1.9","10","","","","","clear_screen","null","null","","","critical","d","c","t","220.0396","154.6796","164","240","240","164","spektor","0.14","w","240","164","164","240","220.0396","154.6796","39360","39360","34035.6388","tc","null","null","null","null","null","null","[3,2]"
"","canvas-keyboard-response","62","230845","0.0-6.0-2.9","10","","","","","rectangles","null","null","","","critical","d","c","t","220.0396","154.6796","164","240","240","164","spektor","0.14","w","240","164","164","240","220.0396","154.6796","39360","39360","34035.6388","tc","null","null","null","null","null","null","[3,2]"
"","canvas-keyboard-response","63","231007","0.0-6.0-3.9","10","","","","","clear_screen","null","null","","","critical","d","c","t","220.0396","154.6796","164","240","240","164","spektor","0.14","w","240","164","164","240","220.0396","154.6796","39360","39360","34035.6388","tc","null","null","null","null","null","null","[3,2]"
"","canvas-keyboard-response","64","232295","0.0-6.0-4.9","10","","","","","make choice","1280","2","","","critical","d","c","t","220.0396","154.6796","164","240","240","164","spektor","0.14","w","240","164","164","240","220.0396","154.6796","39360","39360","34035.6388","tc","null","null","null","null","null","null","[3,2]"
"","canvas-keyboard-response","65","232453","0.0-6.0-5.9","10","","","","","clear_screen","null","null","","","critical","d","c","t","220.0396","154.6796","164","240","240","164","spektor","0.14","w","240","164","164","240","220.0396","154.6796","39360","39360","34035.6388","tc","null","null","null","null","null","null","[3,2]"
"","canvas-keyboard-response","66","232654","0.0-6.0-0.10","10","","","","","pre trial waiting period","null","null","","","critical","c","t","d","164","240","240","164","232.8713","160.6713","trueblood","0.05","w","240","164","164","240","232.8713","160.6713","39360","39360","37415.7294","dc","null","null","null","null","null","null","[3,1]"
"","canvas-keyboard-response","67","232816","0.0-6.0-1.10","10","","","","","clear_screen","null","null","","","critical","c","t","d","164","240","240","164","232.8713","160.6713","trueblood","0.05","w","240","164","164","240","232.8713","160.6713","39360","39360","37415.7294","dc","null","null","null","null","null","null","[3,1]"
"","canvas-keyboard-response","68","234153","0.0-6.0-2.10","10","","","","","rectangles","null","null","","","critical","c","t","d","164","240","240","164","232.8713","160.6713","trueblood","0.05","w","240","164","164","240","232.8713","160.6713","39360","39360","37415.7294","dc","null","null","null","null","null","null","[3,1]"
"","canvas-keyboard-response","69","234312","0.0-6.0-3.10","10","","","","","clear_screen","null","null","","","critical","c","t","d","164","240","240","164","232.8713","160.6713","trueblood","0.05","w","240","164","164","240","232.8713","160.6713","39360","39360","37415.7294","dc","null","null","null","null","null","null","[3,1]"
"","canvas-keyboard-response","70","236881","0.0-6.0-4.10","10","","","","","make choice","2556","1","","","critical","c","t","d","164","240","240","164","232.8713","160.6713","trueblood","0.05","w","240","164","164","240","232.8713","160.6713","39360","39360","37415.7294","dc","null","null","null","null","null","null","[3,1]"
"","canvas-keyboard-response","71","237041","0.0-6.0-5.10","10","","","","","clear_screen","null","null","","","critical","c","t","d","164","240","240","164","232.8713","160.6713","trueblood","0.05","w","240","164","164","240","232.8713","160.6713","39360","39360","37415.7294","dc","null","null","null","null","null","null","[3,1]"
"","canvas-keyboard-response","72","237245","0.0-6.0-0.11","10","","","","","pre trial waiting period","null","null","","","critical","d","c","t","232.8713","160.6713","164","240","240","164","spektor","0.05","w","240","164","164","240","232.8713","160.6713","39360","39360","37415.7294","td","null","null","null","null","null","null","[3,1]"
"","canvas-keyboard-response","73","237406","0.0-6.0-1.11","10","","","","","clear_screen","null","null","","","critical","d","c","t","232.8713","160.6713","164","240","240","164","spektor","0.05","w","240","164","164","240","232.8713","160.6713","39360","39360","37415.7294","td","null","null","null","null","null","null","[3,1]"
"","canvas-keyboard-response","74","238743","0.0-6.0-2.11","10","","","","","rectangles","null","null","","","critical","d","c","t","232.8713","160.6713","164","240","240","164","spektor","0.05","w","240","164","164","240","232.8713","160.6713","39360","39360","37415.7294","td","null","null","null","null","null","null","[3,1]"
"","canvas-keyboard-response","75","238902","0.0-6.0-3.11","10","","","","","clear_screen","null","null","","","critical","d","c","t","232.8713","160.6713","164","240","240","164","spektor","0.05","w","240","164","164","240","232.8713","160.6713","39360","39360","37415.7294","td","null","null","null","null","null","null","[3,1]"
"","canvas-keyboard-response","76","241663","0.0-6.0-4.11","10","","","","","make choice","2753","1","","","critical","d","c","t","232.8713","160.6713","164","240","240","164","spektor","0.05","w","240","164","164","240","232.8713","160.6713","39360","39360","37415.7294","td","null","null","null","null","null","null","[3,1]"
"","canvas-keyboard-response","77","241824","0.0-6.0-5.11","10","","","","","clear_screen","null","null","","","critical","d","c","t","232.8713","160.6713","164","240","240","164","spektor","0.05","w","240","164","164","240","232.8713","160.6713","39360","39360","37415.7294","td","null","null","null","null","null","null","[3,1]"
"","canvas-keyboard-response","78","242027","0.0-6.0-0.12","10","","","","","pre trial waiting period","null","null","","","critical","t","d","c","240","164","240","164","164","240","spektor","0","w","240","164","164","240","240","164","39360","39360","39360","td","null","null","null","null","null","null","[1,2]"
"","canvas-keyboard-response","79","242188","0.0-6.0-1.12","10","","","","","clear_screen","null","null","","","critical","t","d","c","240","164","240","164","164","240","spektor","0","w","240","164","164","240","240","164","39360","39360","39360","td","null","null","null","null","null","null","[1,2]"
"","canvas-keyboard-response","80","243523","0.0-6.0-2.12","10","","","","","rectangles","null","null","","","critical","t","d","c","240","164","240","164","164","240","spektor","0","w","240","164","164","240","240","164","39360","39360","39360","td","null","null","null","null","null","null","[1,2]"
"","canvas-keyboard-response","81","243677","0.0-6.0-3.12","10","","","","","clear_screen","null","null","","","critical","t","d","c","240","164","240","164","164","240","spektor","0","w","240","164","164","240","240","164","39360","39360","39360","td","null","null","null","null","null","null","[1,2]"
"","canvas-keyboard-response","82","245255","0.0-6.0-4.12","10","","","","","make choice","1570","1","","","critical","t","d","c","240","164","240","164","164","240","spektor","0","w","240","164","164","240","240","164","39360","39360","39360","td","null","null","null","null","null","null","[1,2]"
"","canvas-keyboard-response","83","245418","0.0-6.0-5.12","10","","","","","clear_screen","null","null","","","critical","t","d","c","240","164","240","164","164","240","spektor","0","w","240","164","164","240","240","164","39360","39360","39360","td","null","null","null","null","null","null","[1,2]"
"","canvas-keyboard-response","84","245620","0.0-6.0-0.13","10","","","","","pre trial waiting period","null","null","","","critical","c","d","t","240","164","162.6685","237.1485","164","240","spektor","0.02","h","164","240","240","164","162.6685","237.1485","39360","39360","38576.5967","td","null","null","null","null","null","null","[3,2]"
"","canvas-keyboard-response","85","245777","0.0-6.0-1.13","10","","","","","clear_screen","null","null","","","critical","c","d","t","240","164","162.6685","237.1485","164","240","spektor","0.02","h","164","240","240","164","162.6685","237.1485","39360","39360","38576.5967","td","null","null","null","null","null","null","[3,2]"
"","canvas-keyboard-response","86","247110","0.0-6.0-2.13","10","","","","","rectangles","null","null","","","critical","c","d","t","240","164","162.6685","237.1485","164","240","spektor","0.02","h","164","240","240","164","162.6685","237.1485","39360","39360","38576.5967","td","null","null","null","null","null","null","[3,2]"
"","canvas-keyboard-response","87","247272","0.0-6.0-3.13","10","","","","","clear_screen","null","null","","","critical","c","d","t","240","164","162.6685","237.1485","164","240","spektor","0.02","h","164","240","240","164","162.6685","237.1485","39360","39360","38576.5967","td","null","null","null","null","null","null","[3,2]"
"","canvas-keyboard-response","88","251207","0.0-6.0-4.13","10","","","","","make choice","3923","2","","","critical","c","d","t","240","164","162.6685","237.1485","164","240","spektor","0.02","h","164","240","240","164","162.6685","237.1485","39360","39360","38576.5967","td","null","null","null","null","null","null","[3,2]"
"","canvas-keyboard-response","89","251364","0.0-6.0-5.13","10","","","","","clear_screen","null","null","","","critical","c","d","t","240","164","162.6685","237.1485","164","240","spektor","0.02","h","164","240","240","164","162.6685","237.1485","39360","39360","38576.5967","td","null","null","null","null","null","null","[3,2]"
"","canvas-keyboard-response","90","251566","0.0-6.0-0.14","10","","","","","pre trial waiting period","null","null","","","critical","c","d","t","164","240","227.1683","158.0083","240","164","spektor","0.09","w","240","164","164","240","227.1683","158.0083","39360","39360","35894.4834","dc","null","null","null","null","null","null","[2,1]"
"","canvas-keyboard-response","91","251728","0.0-6.0-1.14","10","","","","","clear_screen","null","null","","","critical","c","d","t","164","240","227.1683","158.0083","240","164","spektor","0.09","w","240","164","164","240","227.1683","158.0083","39360","39360","35894.4834","dc","null","null","null","null","null","null","[2,1]"
"","canvas-keyboard-response","92","253066","0.0-6.0-2.14","10","","","","","rectangles","null","null","","","critical","c","d","t","164","240","227.1683","158.0083","240","164","spektor","0.09","w","240","164","164","240","227.1683","158.0083","39360","39360","35894.4834","dc","null","null","null","null","null","null","[2,1]"
"","canvas-keyboard-response","93","253228","0.0-6.0-3.14","10","","","","","clear_screen","null","null","","","critical","c","d","t","164","240","227.1683","158.0083","240","164","spektor","0.09","w","240","164","164","240","227.1683","158.0083","39360","39360","35894.4834","dc","null","null","null","null","null","null","[2,1]"
"","canvas-keyboard-response","94","256854","0.0-6.0-4.14","10","","","","","make choice","3615","2","","","critical","c","d","t","164","240","227.1683","158.0083","240","164","spektor","0.09","w","240","164","164","240","227.1683","158.0083","39360","39360","35894.4834","dc","null","null","null","null","null","null","[2,1]"
"","canvas-keyboard-response","95","257015","0.0-6.0-5.14","10","","","","","clear_screen","null","null","","","critical","c","d","t","164","240","227.1683","158.0083","240","164","spektor","0.09","w","240","164","164","240","227.1683","158.0083","39360","39360","35894.4834","dc","null","null","null","null","null","null","[2,1]"
"","canvas-keyboard-response","96","257217","0.0-6.0-0.15","10","","","","","pre trial waiting period","null","null","","","critical","c","d","t","240","164","164","240","164","240","trueblood","0","h","164","240","240","164","164","240","39360","39360","39360","td","null","null","null","null","null","null","[3,2]"
"","canvas-keyboard-response","97","257378","0.0-6.0-1.15","10","","","","","clear_screen","null","null","","","critical","c","d","t","240","164","164","240","164","240","trueblood","0","h","164","240","240","164","164","240","39360","39360","39360","td","null","null","null","null","null","null","[3,2]"
"","canvas-keyboard-response","98","258718","0.0-6.0-2.15","10","","","","","rectangles","null","null","","","critical","c","d","t","240","164","164","240","164","240","trueblood","0","h","164","240","240","164","164","240","39360","39360","39360","td","null","null","null","null","null","null","[3,2]"
"","canvas-keyboard-response","99","258880","0.0-6.0-3.15","10","","","","","clear_screen","null","null","","","critical","c","d","t","240","164","164","240","164","240","trueblood","0","h","164","240","240","164","164","240","39360","39360","39360","td","null","null","null","null","null","null","[3,2]"
"","canvas-keyboard-response","100","260719","0.0-6.0-4.15","10","","","","","make choice","1828","2","","","critical","c","d","t","240","164","164","240","164","240","trueblood","0","h","164","240","240","164","164","240","39360","39360","39360","td","null","null","null","null","null","null","[3,2]"
"","canvas-keyboard-response","101","260877","0.0-6.0-5.15","10","","","","","clear_screen","null","null","","","critical","c","d","t","240","164","164","240","164","240","trueblood","0","h","164","240","240","164","164","240","39360","39360","39360","td","null","null","null","null","null","null","[3,2]"
"","canvas-keyboard-response","102","261079","0.0-6.0-0.16","10","","","","","pre trial waiting period","null","null","","","critical","t","d","c","164","240","162.6685","237.1485","240","164","spektor","0.02","h","164","240","240","164","162.6685","237.1485","39360","39360","38576.5967","tc","null","null","null","null","null","null","[1,3]"
"","canvas-keyboard-response","103","261239","0.0-6.0-1.16","10","","","","","clear_screen","null","null","","","critical","t","d","c","164","240","162.6685","237.1485","240","164","spektor","0.02","h","164","240","240","164","162.6685","237.1485","39360","39360","38576.5967","tc","null","null","null","null","null","null","[1,3]"
"","canvas-keyboard-response","104","262577","0.0-6.0-2.16","10","","","","","rectangles","null","null","","","critical","t","d","c","164","240","162.6685","237.1485","240","164","spektor","0.02","h","164","240","240","164","162.6685","237.1485","39360","39360","38576.5967","tc","null","null","null","null","null","null","[1,3]"
"","canvas-keyboard-response","105","262737","0.0-6.0-3.16","10","","","","","clear_screen","null","null","","","critical","t","d","c","164","240","162.6685","237.1485","240","164","spektor","0.02","h","164","240","240","164","162.6685","237.1485","39360","39360","38576.5967","tc","null","null","null","null","null","null","[1,3]"
"","canvas-keyboard-response","106","266096","0.0-6.0-4.16","10","","","","","make choice","3350","1","","","critical","t","d","c","164","240","162.6685","237.1485","240","164","spektor","0.02","h","164","240","240","164","162.6685","237.1485","39360","39360","38576.5967","tc","null","null","null","null","null","null","[1,3]"
"","canvas-keyboard-response","107","266253","0.0-6.0-5.16","10","","","","","clear_screen","null","null","","","critical","t","d","c","164","240","162.6685","237.1485","240","164","spektor","0.02","h","164","240","240","164","162.6685","237.1485","39360","39360","38576.5967","tc","null","null","null","null","null","null","[1,3]"
"","canvas-keyboard-response","108","266456","0.0-6.0-0.17","10","","","","","pre trial waiting period","null","null","","","critical","t","c","d","240","164","164","240","232.8713","160.6713","trueblood","0.05","w","240","164","164","240","232.8713","160.6713","39360","39360","37415.7294","td","null","null","null","null","null","null","[1,3]"
"","canvas-keyboard-response","109","266617","0.0-6.0-1.17","10","","","","","clear_screen","null","null","","","critical","t","c","d","240","164","164","240","232.8713","160.6713","trueblood","0.05","w","240","164","164","240","232.8713","160.6713","39360","39360","37415.7294","td","null","null","null","null","null","null","[1,3]"
"","canvas-keyboard-response","110","267952","0.0-6.0-2.17","10","","","","","rectangles","null","null","","","critical","t","c","d","240","164","164","240","232.8713","160.6713","trueblood","0.05","w","240","164","164","240","232.8713","160.6713","39360","39360","37415.7294","td","null","null","null","null","null","null","[1,3]"
"","canvas-keyboard-response","111","268113","0.0-6.0-3.17","10","","","","","clear_screen","null","null","","","critical","t","c","d","240","164","164","240","232.8713","160.6713","trueblood","0.05","w","240","164","164","240","232.8713","160.6713","39360","39360","37415.7294","td","null","null","null","null","null","null","[1,3]"
"","canvas-keyboard-response","112","270430","0.0-6.0-4.17","10","","","","","make choice","2308","1","","","critical","t","c","d","240","164","164","240","232.8713","160.6713","trueblood","0.05","w","240","164","164","240","232.8713","160.6713","39360","39360","37415.7294","td","null","null","null","null","null","null","[1,3]"
"","canvas-keyboard-response","113","270588","0.0-6.0-5.17","10","","","","","clear_screen","null","null","","","critical","t","c","d","240","164","164","240","232.8713","160.6713","trueblood","0.05","w","240","164","164","240","232.8713","160.6713","39360","39360","37415.7294","td","null","null","null","null","null","null","[1,3]"
"","canvas-keyboard-response","114","270790","0.0-6.0-0.18","10","","","","","pre trial waiting period","null","null","","","catch","l","sh","sw","281","179","227","176","188","233","spektor","null","null","null","null","null","null","null","null","null","null","null","","180","200","260","200","36000","52000","[1,3]"
"","canvas-keyboard-response","115","270950","0.0-6.0-1.18","10","","","","","clear_screen","null","null","","","catch","l","sh","sw","281","179","227","176","188","233","spektor","null","null","null","null","null","null","null","null","null","null","null","","180","200","260","200","36000","52000","[1,3]"
"","canvas-keyboard-response","116","272289","0.0-6.0-2.18","10","","","","","rectangles","null","null","","","catch","l","sh","sw","281","179","227","176","188","233","spektor","null","null","null","null","null","null","null","null","null","null","null","","180","200","260","200","36000","52000","[1,3]"
"","canvas-keyboard-response","117","272448","0.0-6.0-3.18","10","","","","","clear_screen","null","null","","","catch","l","sh","sw","281","179","227","176","188","233","spektor","null","null","null","null","null","null","null","null","null","null","null","","180","200","260","200","36000","52000","[1,3]"
"","canvas-keyboard-response","118","274303","0.0-6.0-4.18","10","","","","","make choice","1841","1","","","catch","l","sh","sw","281","179","227","176","188","233","spektor","null","null","null","null","null","null","null","null","null","null","null","","180","200","260","200","36000","52000","[1,3]"
"","canvas-keyboard-response","119","274462","0.0-6.0-5.18","10","","","","","clear_screen","null","null","","","catch","l","sh","sw","281","179","227","176","188","233","spektor","null","null","null","null","null","null","null","null","null","null","null","","180","200","260","200","36000","52000","[1,3]"
"","canvas-keyboard-response","120","274664","0.0-6.0-0.19","10","","","","","pre trial waiting period","null","null","","","catch","sh","sw","l","220","156","216","165","266","184","spektor","null","null","null","null","null","null","null","null","null","null","null","","180","200","260","200","36000","52000","[2,3]"
"","canvas-keyboard-response","121","274827","0.0-6.0-1.19","10","","","","","clear_screen","null","null","","","catch","sh","sw","l","220","156","216","165","266","184","spektor","null","null","null","null","null","null","null","null","null","null","null","","180","200","260","200","36000","52000","[2,3]"
"","canvas-keyboard-response","122","276163","0.0-6.0-2.19","10","","","","","rectangles","null","null","","","catch","sh","sw","l","220","156","216","165","266","184","spektor","null","null","null","null","null","null","null","null","null","null","null","","180","200","260","200","36000","52000","[2,3]"
"","canvas-keyboard-response","123","276322","0.0-6.0-3.19","10","","","","","clear_screen","null","null","","","catch","sh","sw","l","220","156","216","165","266","184","spektor","null","null","null","null","null","null","null","null","null","null","null","","180","200","260","200","36000","52000","[2,3]"
"","canvas-keyboard-response","124","278704","0.0-6.0-4.19","10","","","","","make choice","2370","2","","","catch","sh","sw","l","220","156","216","165","266","184","spektor","null","null","null","null","null","null","null","null","null","null","null","","180","200","260","200","36000","52000","[2,3]"
"","canvas-keyboard-response","125","278864","0.0-6.0-5.19","10","","","","","clear_screen","null","null","","","catch","sh","sw","l","220","156","216","165","266","184","spektor","null","null","null","null","null","null","null","null","null","null","null","","180","200","260","200","36000","52000","[2,3]"
"","canvas-keyboard-response","126","279065","0.0-6.0-0.20","10","","","","","pre trial waiting period","null","null","","","catch","l","sw","sh","190","235","160","213","222","169","trueblood","null","null","null","null","null","null","null","null","null","null","null","","180","200","260","200","36000","52000","[1,2]"
"","canvas-keyboard-response","127","279227","0.0-6.0-1.20","10","","","","","clear_screen","null","null","","","catch","l","sw","sh","190","235","160","213","222","169","trueblood","null","null","null","null","null","null","null","null","null","null","null","","180","200","260","200","36000","52000","[1,2]"
"","canvas-keyboard-response","128","280565","0.0-6.0-2.20","10","","","","","rectangles","null","null","","","catch","l","sw","sh","190","235","160","213","222","169","trueblood","null","null","null","null","null","null","null","null","null","null","null","","180","200","260","200","36000","52000","[1,2]"
"","canvas-keyboard-response","129","280724","0.0-6.0-3.20","10","","","","","clear_screen","null","null","","","catch","l","sw","sh","190","235","160","213","222","169","trueblood","null","null","null","null","null","null","null","null","null","null","null","","180","200","260","200","36000","52000","[1,2]"
"","canvas-keyboard-response","130","283215","0.0-6.0-4.20","10","","","","","make choice","2483","1","","","catch","l","sw","sh","190","235","160","213","222","169","trueblood","null","null","null","null","null","null","null","null","null","null","null","","180","200","260","200","36000","52000","[1,2]"
"","canvas-keyboard-response","131","283373","0.0-6.0-5.20","10","","","","","clear_screen","null","null","","","catch","l","sw","sh","190","235","160","213","222","169","trueblood","null","null","null","null","null","null","null","null","null","null","null","","180","200","260","200","36000","52000","[1,2]"
"","canvas-keyboard-response","132","283575","0.0-6.0-0.21","10","","","","","pre trial waiting period","null","null","","","catch","sw","sh","l","180","200","192","209","234","250","spektor","null","null","null","null","null","null","null","null","null","null","null","","180","200","260","200","36000","52000","[1,3]"
"","canvas-keyboard-response","133","283733","0.0-6.0-1.21","10","","","","","clear_screen","null","null","","","catch","sw","sh","l","180","200","192","209","234","250","spektor","null","null","null","null","null","null","null","null","null","null","null","","180","200","260","200","36000","52000","[1,3]"
"","canvas-keyboard-response","134","285069","0.0-6.0-2.21","10","","","","","rectangles","null","null","","","catch","sw","sh","l","180","200","192","209","234","250","spektor","null","null","null","null","null","null","null","null","null","null","null","","180","200","260","200","36000","52000","[1,3]"
"","canvas-keyboard-response","135","285227","0.0-6.0-3.21","10","","","","","clear_screen","null","null","","","catch","sw","sh","l","180","200","192","209","234","250","spektor","null","null","null","null","null","null","null","null","null","null","null","","180","200","260","200","36000","52000","[1,3]"
"","canvas-keyboard-response","136","287702","0.0-6.0-4.21","10","","","","","make choice","2466","3","","","catch","sw","sh","l","180","200","192","209","234","250","spektor","null","null","null","null","null","null","null","null","null","null","null","","180","200","260","200","36000","52000","[1,3]"
"","canvas-keyboard-response","137","287861","0.0-6.0-5.21","10","","","","","clear_screen","null","null","","","catch","sw","sh","l","180","200","192","209","234","250","spektor","null","null","null","null","null","null","null","null","null","null","null","","180","200","260","200","36000","52000","[1,3]"
"","canvas-keyboard-response","138","288063","0.0-6.0-0.22","10","","","","","pre trial waiting period","null","null","","","critical","c","t","d","240","164","164","240","154.6796","220.0396","trueblood","0.14","h","164","240","240","164","154.6796","220.0396","39360","39360","34035.6388","td","null","null","null","null","null","null","[2,3]"
"","canvas-keyboard-response","139","288224","0.0-6.0-1.22","10","","","","","clear_screen","null","null","","","critical","c","t","d","240","164","164","240","154.6796","220.0396","trueblood","0.14","h","164","240","240","164","154.6796","220.0396","39360","39360","34035.6388","td","null","null","null","null","null","null","[2,3]"
"","canvas-keyboard-response","140","289563","0.0-6.0-2.22","10","","","","","rectangles","null","null","","","critical","c","t","d","240","164","164","240","154.6796","220.0396","trueblood","0.14","h","164","240","240","164","154.6796","220.0396","39360","39360","34035.6388","td","null","null","null","null","null","null","[2,3]"
"","canvas-keyboard-response","141","289726","0.0-6.0-3.22","10","","","","","clear_screen","null","null","","","critical","c","t","d","240","164","164","240","154.6796","220.0396","trueblood","0.14","h","164","240","240","164","154.6796","220.0396","39360","39360","34035.6388","td","null","null","null","null","null","null","[2,3]"
"","canvas-keyboard-response","142","292958","0.0-6.0-4.22","10","","","","","make choice","3222","2","","","critical","c","t","d","240","164","164","240","154.6796","220.0396","trueblood","0.14","h","164","240","240","164","154.6796","220.0396","39360","39360","34035.6388","td","null","null","null","null","null","null","[2,3]"
"","canvas-keyboard-response","143","293118","0.0-6.0-5.22","10","","","","","clear_screen","null","null","","","critical","c","t","d","240","164","164","240","154.6796","220.0396","trueblood","0.14","h","164","240","240","164","154.6796","220.0396","39360","39360","34035.6388","td","null","null","null","null","null","null","[2,3]"
"","canvas-keyboard-response","144","293319","0.0-6.0-0.23","10","","","","","pre trial waiting period","null","null","","","catch","l","sw","sh","191","260","150","215","174","190","trueblood","null","null","null","null","null","null","null","null","null","null","null","","180","200","260","200","36000","52000","[1,2]"
"","canvas-keyboard-response","145","293482","0.0-6.0-1.23","10","","","","","clear_screen","null","null","","","catch","l","sw","sh","191","260","150","215","174","190","trueblood","null","null","null","null","null","null","null","null","null","null","null","","180","200","260","200","36000","52000","[1,2]"
"","canvas-keyboard-response","146","294819","0.0-6.0-2.23","10","","","","","rectangles","null","null","","","catch","l","sw","sh","191","260","150","215","174","190","trueblood","null","null","null","null","null","null","null","null","null","null","null","","180","200","260","200","36000","52000","[1,2]"
"","canvas-keyboard-response","147","294982","0.0-6.0-3.23","10","","","","","clear_screen","null","null","","","catch","l","sw","sh","191","260","150","215","174","190","trueblood","null","null","null","null","null","null","null","null","null","null","null","","180","200","260","200","36000","52000","[1,2]"
"","canvas-keyboard-response","148","295959","0.0-6.0-4.23","10","","","","","make choice","967","1","","","catch","l","sw","sh","191","260","150","215","174","190","trueblood","null","null","null","null","null","null","null","null","null","null","null","","180","200","260","200","36000","52000","[1,2]"
"","canvas-keyboard-response","149","296119","0.0-6.0-5.23","10","","","","","clear_screen","null","null","","","catch","l","sw","sh","191","260","150","215","174","190","trueblood","null","null","null","null","null","null","null","null","null","null","null","","180","200","260","200","36000","52000","[1,2]"
"","canvas-keyboard-response","150","296320","0.0-6.0-0.24","10","","","","","pre trial waiting period","null","null","","","catch","sw","l","sh","180","200","285","200","187","145","trueblood","null","null","null","null","null","null","null","null","null","null","null","","180","200","260","200","36000","52000","[2,3]"
"","canvas-keyboard-response","151","296484","0.0-6.0-1.24","10","","","","","clear_screen","null","null","","","catch","sw","l","sh","180","200","285","200","187","145","trueblood","null","null","null","null","null","null","null","null","null","null","null","","180","200","260","200","36000","52000","[2,3]"
"","canvas-keyboard-response","152","297819","0.0-6.0-2.24","10","","","","","rectangles","null","null","","","catch","sw","l","sh","180","200","285","200","187","145","trueblood","null","null","null","null","null","null","null","null","null","null","null","","180","200","260","200","36000","52000","[2,3]"
"","canvas-keyboard-response","153","297981","0.0-6.0-3.24","10","","","","","clear_screen","null","null","","","catch","sw","l","sh","180","200","285","200","187","145","trueblood","null","null","null","null","null","null","null","null","null","null","null","","180","200","260","200","36000","52000","[2,3]"
"","canvas-keyboard-response","154","301343","0.0-6.0-4.24","10","","","","","make choice","3353","2","","","catch","sw","l","sh","180","200","285","200","187","145","trueblood","null","null","null","null","null","null","null","null","null","null","null","","180","200","260","200","36000","52000","[2,3]"
"","canvas-keyboard-response","155","301504","0.0-6.0-5.24","10","","","","","clear_screen","null","null","","","catch","sw","l","sh","180","200","285","200","187","145","trueblood","null","null","null","null","null","null","null","null","null","null","null","","180","200","260","200","36000","52000","[2,3]"
"","canvas-keyboard-response","156","301705","0.0-6.0-0.25","10","","","","","pre trial waiting period","null","null","","","critical","t","c","d","164","240","240","164","162.6685","237.1485","spektor","0.02","h","164","240","240","164","162.6685","237.1485","39360","39360","38576.5967","dc","null","null","null","null","null","null","[3,2]"
"","canvas-keyboard-response","157","301868","0.0-6.0-1.25","10","","","","","clear_screen","null","null","","","critical","t","c","d","164","240","240","164","162.6685","237.1485","spektor","0.02","h","164","240","240","164","162.6685","237.1485","39360","39360","38576.5967","dc","null","null","null","null","null","null","[3,2]"
"","canvas-keyboard-response","158","303203","0.0-6.0-2.25","10","","","","","rectangles","null","null","","","critical","t","c","d","164","240","240","164","162.6685","237.1485","spektor","0.02","h","164","240","240","164","162.6685","237.1485","39360","39360","38576.5967","dc","null","null","null","null","null","null","[3,2]"
"","canvas-keyboard-response","159","303362","0.0-6.0-3.25","10","","","","","clear_screen","null","null","","","critical","t","c","d","164","240","240","164","162.6685","237.1485","spektor","0.02","h","164","240","240","164","162.6685","237.1485","39360","39360","38576.5967","dc","null","null","null","null","null","null","[3,2]"
"","canvas-keyboard-response","160","304848","0.0-6.0-4.25","10","","","","","make choice","1476","2","","","critical","t","c","d","164","240","240","164","162.6685","237.1485","spektor","0.02","h","164","240","240","164","162.6685","237.1485","39360","39360","38576.5967","dc","null","null","null","null","null","null","[3,2]"
"","canvas-keyboard-response","161","305010","0.0-6.0-5.25","10","","","","","clear_screen","null","null","","","critical","t","c","d","164","240","240","164","162.6685","237.1485","spektor","0.02","h","164","240","240","164","162.6685","237.1485","39360","39360","38576.5967","dc","null","null","null","null","null","null","[3,2]"
"","canvas-keyboard-response","162","305211","0.0-6.0-0.26","10","","","","","pre trial waiting period","null","null","","","catch","l","sh","sw","166","234","211","163","179","207","spektor","null","null","null","null","null","null","null","null","null","null","null","","180","200","260","200","36000","52000","[1,2]"
"","canvas-keyboard-response","163","305373","0.0-6.0-1.26","10","","","","","clear_screen","null","null","","","catch","l","sh","sw","166","234","211","163","179","207","spektor","null","null","null","null","null","null","null","null","null","null","null","","180","200","260","200","36000","52000","[1,2]"
"","canvas-keyboard-response","164","306709","0.0-6.0-2.26","10","","","","","rectangles","null","null","","","catch","l","sh","sw","166","234","211","163","179","207","spektor","null","null","null","null","null","null","null","null","null","null","null","","180","200","260","200","36000","52000","[1,2]"
"","canvas-keyboard-response","165","306871","0.0-6.0-3.26","10","","","","","clear_screen","null","null","","","catch","l","sh","sw","166","234","211","163","179","207","spektor","null","null","null","null","null","null","null","null","null","null","null","","180","200","260","200","36000","52000","[1,2]"
"","canvas-keyboard-response","166","308615","0.0-6.0-4.26","10","","","","","make choice","1736","2","","","catch","l","sh","sw","166","234","211","163","179","207","spektor","null","null","null","null","null","null","null","null","null","null","null","","180","200","260","200","36000","52000","[1,2]"
"","canvas-keyboard-response","167","308774","0.0-6.0-5.26","10","","","","","clear_screen","null","null","","","catch","l","sh","sw","166","234","211","163","179","207","spektor","null","null","null","null","null","null","null","null","null","null","null","","180","200","260","200","36000","52000","[1,2]"
"","canvas-keyboard-response","168","308975","0.0-6.0-0.27","10","","","","","pre trial waiting period","null","null","","","catch","sh","sw","l","190","188","212","210","197","229","spektor","null","null","null","null","null","null","null","null","null","null","null","","180","200","260","200","36000","52000","[1,3]"
"","canvas-keyboard-response","169","309137","0.0-6.0-1.27","10","","","","","clear_screen","null","null","","","catch","sh","sw","l","190","188","212","210","197","229","spektor","null","null","null","null","null","null","null","null","null","null","null","","180","200","260","200","36000","52000","[1,3]"
"","canvas-keyboard-response","170","310478","0.0-6.0-2.27","10","","","","","rectangles","null","null","","","catch","sh","sw","l","190","188","212","210","197","229","spektor","null","null","null","null","null","null","null","null","null","null","null","","180","200","260","200","36000","52000","[1,3]"
"","canvas-keyboard-response","171","310639","0.0-6.0-3.27","10","","","","","clear_screen","null","null","","","catch","sh","sw","l","190","188","212","210","197","229","spektor","null","null","null","null","null","null","null","null","null","null","null","","180","200","260","200","36000","52000","[1,3]"
"","canvas-keyboard-response","172","314918","0.0-6.0-4.27","10","","","","","make choice","4266","1","","","catch","sh","sw","l","190","188","212","210","197","229","spektor","null","null","null","null","null","null","null","null","null","null","null","","180","200","260","200","36000","52000","[1,3]"
"","canvas-keyboard-response","173","315077","0.0-6.0-5.27","10","","","","","clear_screen","null","null","","","catch","sh","sw","l","190","188","212","210","197","229","spektor","null","null","null","null","null","null","null","null","null","null","null","","180","200","260","200","36000","52000","[1,3]"
"","canvas-keyboard-response","174","315279","0.0-6.0-0.28","10","","","","","pre trial waiting period","null","null","","","critical","c","d","t","240","164","160.6713","232.8713","164","240","spektor","0.05","h","164","240","240","164","160.6713","232.8713","39360","39360","37415.7294","tc","null","null","null","null","null","null","[3,1]"
"","canvas-keyboard-response","175","315438","0.0-6.0-1.28","10","","","","","clear_screen","null","null","","","critical","c","d","t","240","164","160.6713","232.8713","164","240","spektor","0.05","h","164","240","240","164","160.6713","232.8713","39360","39360","37415.7294","tc","null","null","null","null","null","null","[3,1]"
"","canvas-keyboard-response","176","316773","0.0-6.0-2.28","10","","","","","rectangles","null","null","","","critical","c","d","t","240","164","160.6713","232.8713","164","240","spektor","0.05","h","164","240","240","164","160.6713","232.8713","39360","39360","37415.7294","tc","null","null","null","null","null","null","[3,1]"
"","canvas-keyboard-response","177","316936","0.0-6.0-3.28","10","","","","","clear_screen","null","null","","","critical","c","d","t","240","164","160.6713","232.8713","164","240","spektor","0.05","h","164","240","240","164","160.6713","232.8713","39360","39360","37415.7294","tc","null","null","null","null","null","null","[3,1]"
"","canvas-keyboard-response","178","318279","0.0-6.0-4.28","10","","","","","make choice","1334","1","","","critical","c","d","t","240","164","160.6713","232.8713","164","240","spektor","0.05","h","164","240","240","164","160.6713","232.8713","39360","39360","37415.7294","tc","null","null","null","null","null","null","[3,1]"
"","canvas-keyboard-response","179","318436","0.0-6.0-5.28","10","","","","","clear_screen","null","null","","","critical","c","d","t","240","164","160.6713","232.8713","164","240","spektor","0.05","h","164","240","240","164","160.6713","232.8713","39360","39360","37415.7294","tc","null","null","null","null","null","null","[3,1]"
"","canvas-keyboard-response","180","318637","0.0-6.0-0.29","10","","","","","pre trial waiting period","null","null","","","critical","d","c","t","164","240","240","164","164","240","trueblood","0","h","164","240","240","164","164","240","39360","39360","39360","dc","null","null","null","null","null","null","[1,2]"
"","canvas-keyboard-response","181","318801","0.0-6.0-1.29","10","","","","","clear_screen","null","null","","","critical","d","c","t","164","240","240","164","164","240","trueblood","0","h","164","240","240","164","164","240","39360","39360","39360","dc","null","null","null","null","null","null","[1,2]"
"","canvas-keyboard-response","182","320139","0.0-6.0-2.29","10","","","","","rectangles","null","null","","","critical","d","c","t","164","240","240","164","164","240","trueblood","0","h","164","240","240","164","164","240","39360","39360","39360","dc","null","null","null","null","null","null","[1,2]"
"","canvas-keyboard-response","183","320296","0.0-6.0-3.29","10","","","","","clear_screen","null","null","","","critical","d","c","t","164","240","240","164","164","240","trueblood","0","h","164","240","240","164","164","240","39360","39360","39360","dc","null","null","null","null","null","null","[1,2]"
"","canvas-keyboard-response","184","321031","0.0-6.0-4.29","10","","","","","make choice","722","1","","","critical","d","c","t","164","240","240","164","164","240","trueblood","0","h","164","240","240","164","164","240","39360","39360","39360","dc","null","null","null","null","null","null","[1,2]"
"","canvas-keyboard-response","185","321190","0.0-6.0-5.29","10","","","","","clear_screen","null","null","","","critical","d","c","t","164","240","240","164","164","240","trueblood","0","h","164","240","240","164","164","240","39360","39360","39360","dc","null","null","null","null","null","null","[1,2]"
"","canvas-keyboard-response","186","321392","0.0-6.0-0.30","10","","","","","pre trial waiting period","null","null","","","critical","d","t","c","237.1485","162.6685","240","164","164","240","trueblood","0.02","w","240","164","164","240","237.1485","162.6685","39360","39360","38576.5967","td","null","null","null","null","null","null","[2,1]"
"","canvas-keyboard-response","187","321552","0.0-6.0-1.30","10","","","","","clear_screen","null","null","","","critical","d","t","c","237.1485","162.6685","240","164","164","240","trueblood","0.02","w","240","164","164","240","237.1485","162.6685","39360","39360","38576.5967","td","null","null","null","null","null","null","[2,1]"
"","canvas-keyboard-response","188","322889","0.0-6.0-2.30","10","","","","","rectangles","null","null","","","critical","d","t","c","237.1485","162.6685","240","164","164","240","trueblood","0.02","w","240","164","164","240","237.1485","162.6685","39360","39360","38576.5967","td","null","null","null","null","null","null","[2,1]"
"","canvas-keyboard-response","189","323051","0.0-6.0-3.30","10","","","","","clear_screen","null","null","","","critical","d","t","c","237.1485","162.6685","240","164","164","240","trueblood","0.02","w","240","164","164","240","237.1485","162.6685","39360","39360","38576.5967","td","null","null","null","null","null","null","[2,1]"
"","canvas-keyboard-response","190","325463","0.0-6.0-4.30","10","","","","","make choice","2402","2","","","critical","d","t","c","237.1485","162.6685","240","164","164","240","trueblood","0.02","w","240","164","164","240","237.1485","162.6685","39360","39360","38576.5967","td","null","null","null","null","null","null","[2,1]"
"","canvas-keyboard-response","191","325621","0.0-6.0-5.30","10","","","","","clear_screen","null","null","","","critical","d","t","c","237.1485","162.6685","240","164","164","240","trueblood","0.02","w","240","164","164","240","237.1485","162.6685","39360","39360","38576.5967","td","null","null","null","null","null","null","[2,1]"
"","canvas-keyboard-response","192","325822","0.0-6.0-0.31","10","","","","","pre trial waiting period","null","null","","","critical","d","t","c","240","164","240","164","164","240","spektor","0","w","240","164","164","240","240","164","39360","39360","39360","tc","null","null","null","null","null","null","[2,3]"
"","canvas-keyboard-response","193","325983","0.0-6.0-1.31","10","","","","","clear_screen","null","null","","","critical","d","t","c","240","164","240","164","164","240","spektor","0","w","240","164","164","240","240","164","39360","39360","39360","tc","null","null","null","null","null","null","[2,3]"
"","canvas-keyboard-response","194","327319","0.0-6.0-2.31","10","","","","","rectangles","null","null","","","critical","d","t","c","240","164","240","164","164","240","spektor","0","w","240","164","164","240","240","164","39360","39360","39360","tc","null","null","null","null","null","null","[2,3]"
"","canvas-keyboard-response","195","327478","0.0-6.0-3.31","10","","","","","clear_screen","null","null","","","critical","d","t","c","240","164","240","164","164","240","spektor","0","w","240","164","164","240","240","164","39360","39360","39360","tc","null","null","null","null","null","null","[2,3]"
"","canvas-keyboard-response","196","329536","0.0-6.0-4.31","10","","","","","make choice","2049","2","","","critical","d","t","c","240","164","240","164","164","240","spektor","0","w","240","164","164","240","240","164","39360","39360","39360","tc","null","null","null","null","null","null","[2,3]"
"","canvas-keyboard-response","197","329697","0.0-6.0-5.31","10","","","","","clear_screen","null","null","","","critical","d","t","c","240","164","240","164","164","240","spektor","0","w","240","164","164","240","240","164","39360","39360","39360","tc","null","null","null","null","null","null","[2,3]"
"","canvas-keyboard-response","198","329901","0.0-6.0-0.32","10","","","","","pre trial waiting period","null","null","","","critical","c","t","d","240","164","164","240","160.6713","232.8713","trueblood","0.05","h","164","240","240","164","160.6713","232.8713","39360","39360","37415.7294","tc","null","null","null","null","null","null","[2,1]"
"","canvas-keyboard-response","199","330061","0.0-6.0-1.32","10","","","","","clear_screen","null","null","","","critical","c","t","d","240","164","164","240","160.6713","232.8713","trueblood","0.05","h","164","240","240","164","160.6713","232.8713","39360","39360","37415.7294","tc","null","null","null","null","null","null","[2,1]"
"","canvas-keyboard-response","200","331400","0.0-6.0-2.32","10","","","","","rectangles","null","null","","","critical","c","t","d","240","164","164","240","160.6713","232.8713","trueblood","0.05","h","164","240","240","164","160.6713","232.8713","39360","39360","37415.7294","tc","null","null","null","null","null","null","[2,1]"
"","canvas-keyboard-response","201","331560","0.0-6.0-3.32","10","","","","","clear_screen","null","null","","","critical","c","t","d","240","164","164","240","160.6713","232.8713","trueblood","0.05","h","164","240","240","164","160.6713","232.8713","39360","39360","37415.7294","tc","null","null","null","null","null","null","[2,1]"
"","canvas-keyboard-response","202","333063","0.0-6.0-4.32","10","","","","","make choice","1494","2","","","critical","c","t","d","240","164","164","240","160.6713","232.8713","trueblood","0.05","h","164","240","240","164","160.6713","232.8713","39360","39360","37415.7294","tc","null","null","null","null","null","null","[2,1]"
"","canvas-keyboard-response","203","333224","0.0-6.0-5.32","10","","","","","clear_screen","null","null","","","critical","c","t","d","240","164","164","240","160.6713","232.8713","trueblood","0.05","h","164","240","240","164","160.6713","232.8713","39360","39360","37415.7294","tc","null","null","null","null","null","null","[2,1]"
"","canvas-keyboard-response","204","333426","0.0-6.0-0.33","10","","","","","pre trial waiting period","null","null","","","catch","l","sh","sw","227","195","177","182","172","213","spektor","null","null","null","null","null","null","null","null","null","null","null","","180","200","260","200","36000","52000","[1,2]"
"","canvas-keyboard-response","205","333585","0.0-6.0-1.33","10","","","","","clear_screen","null","null","","","catch","l","sh","sw","227","195","177","182","172","213","spektor","null","null","null","null","null","null","null","null","null","null","null","","180","200","260","200","36000","52000","[1,2]"
"","canvas-keyboard-response","206","334927","0.0-6.0-2.33","10","","","","","rectangles","null","null","","","catch","l","sh","sw","227","195","177","182","172","213","spektor","null","null","null","null","null","null","null","null","null","null","null","","180","200","260","200","36000","52000","[1,2]"
"","canvas-keyboard-response","207","335086","0.0-6.0-3.33","10","","","","","clear_screen","null","null","","","catch","l","sh","sw","227","195","177","182","172","213","spektor","null","null","null","null","null","null","null","null","null","null","null","","180","200","260","200","36000","52000","[1,2]"
"","canvas-keyboard-response","208","335431","0.0-6.0-4.33","10","","","","","make choice","332","2","","","catch","l","sh","sw","227","195","177","182","172","213","spektor","null","null","null","null","null","null","null","null","null","null","null","","180","200","260","200","36000","52000","[1,2]"
"","canvas-keyboard-response","209","335599","0.0-6.0-5.33","10","","","","","clear_screen","null","null","","","catch","l","sh","sw","227","195","177","182","172","213","spektor","null","null","null","null","null","null","null","null","null","null","null","","180","200","260","200","36000","52000","[1,2]"
"","canvas-keyboard-response","210","335800","0.0-6.0-0.34","10","","","","","pre trial waiting period","null","null","","","critical","d","t","c","240","164","240","164","164","240","trueblood","0","w","240","164","164","240","240","164","39360","39360","39360","tc","null","null","null","null","null","null","[2,3]"
"","canvas-keyboard-response","211","335964","0.0-6.0-1.34","10","","","","","clear_screen","null","null","","","critical","d","t","c","240","164","240","164","164","240","trueblood","0","w","240","164","164","240","240","164","39360","39360","39360","tc","null","null","null","null","null","null","[2,3]"
"","canvas-keyboard-response","212","337301","0.0-6.0-2.34","10","","","","","rectangles","null","null","","","critical","d","t","c","240","164","240","164","164","240","trueblood","0","w","240","164","164","240","240","164","39360","39360","39360","tc","null","null","null","null","null","null","[2,3]"
"","canvas-keyboard-response","213","337460","0.0-6.0-3.34","10","","","","","clear_screen","null","null","","","critical","d","t","c","240","164","240","164","164","240","trueblood","0","w","240","164","164","240","240","164","39360","39360","39360","tc","null","null","null","null","null","null","[2,3]"
"","canvas-keyboard-response","214","339110","0.0-6.0-4.34","10","","","","","make choice","1641","2","","","critical","d","t","c","240","164","240","164","164","240","trueblood","0","w","240","164","164","240","240","164","39360","39360","39360","tc","null","null","null","null","null","null","[2,3]"
"","canvas-keyboard-response","215","339270","0.0-6.0-5.34","10","","","","","clear_screen","null","null","","","critical","d","t","c","240","164","240","164","164","240","trueblood","0","w","240","164","164","240","240","164","39360","39360","39360","tc","null","null","null","null","null","null","[2,3]"
"","canvas-keyboard-response","216","339472","0.0-6.0-0.35","10","","","","","pre trial waiting period","null","null","","","critical","t","d","c","164","240","154.6796","220.0396","240","164","spektor","0.14","h","164","240","240","164","154.6796","220.0396","39360","39360","34035.6388","dc","null","null","null","null","null","null","[2,3]"
"","canvas-keyboard-response","217","339632","0.0-6.0-1.35","10","","","","","clear_screen","null","null","","","critical","t","d","c","164","240","154.6796","220.0396","240","164","spektor","0.14","h","164","240","240","164","154.6796","220.0396","39360","39360","34035.6388","dc","null","null","null","null","null","null","[2,3]"
"","canvas-keyboard-response","218","340968","0.0-6.0-2.35","10","","","","","rectangles","null","null","","","critical","t","d","c","164","240","154.6796","220.0396","240","164","spektor","0.14","h","164","240","240","164","154.6796","220.0396","39360","39360","34035.6388","dc","null","null","null","null","null","null","[2,3]"
"","canvas-keyboard-response","219","341129","0.0-6.0-3.35","10","","","","","clear_screen","null","null","","","critical","t","d","c","164","240","154.6796","220.0396","240","164","spektor","0.14","h","164","240","240","164","154.6796","220.0396","39360","39360","34035.6388","dc","null","null","null","null","null","null","[2,3]"
"","canvas-keyboard-response","220","342199","0.0-6.0-4.35","10","","","","","make choice","1062","2","","","critical","t","d","c","164","240","154.6796","220.0396","240","164","spektor","0.14","h","164","240","240","164","154.6796","220.0396","39360","39360","34035.6388","dc","null","null","null","null","null","null","[2,3]"
"","canvas-keyboard-response","221","342358","0.0-6.0-5.35","10","","","","","clear_screen","null","null","","","critical","t","d","c","164","240","154.6796","220.0396","240","164","spektor","0.14","h","164","240","240","164","154.6796","220.0396","39360","39360","34035.6388","dc","null","null","null","null","null","null","[2,3]"
"","canvas-keyboard-response","222","342561","0.0-6.0-0.36","10","","","","","pre trial waiting period","null","null","","","critical","d","c","t","160.6713","232.8713","240","164","164","240","trueblood","0.05","h","164","240","240","164","160.6713","232.8713","39360","39360","37415.7294","dc","null","null","null","null","null","null","[1,2]"
"","canvas-keyboard-response","223","342719","0.0-6.0-1.36","10","","","","","clear_screen","null","null","","","critical","d","c","t","160.6713","232.8713","240","164","164","240","trueblood","0.05","h","164","240","240","164","160.6713","232.8713","39360","39360","37415.7294","dc","null","null","null","null","null","null","[1,2]"
"","canvas-keyboard-response","224","344057","0.0-6.0-2.36","10","","","","","rectangles","null","null","","","critical","d","c","t","160.6713","232.8713","240","164","164","240","trueblood","0.05","h","164","240","240","164","160.6713","232.8713","39360","39360","37415.7294","dc","null","null","null","null","null","null","[1,2]"
"","canvas-keyboard-response","225","344216","0.0-6.0-3.36","10","","","","","clear_screen","null","null","","","critical","d","c","t","160.6713","232.8713","240","164","164","240","trueblood","0.05","h","164","240","240","164","160.6713","232.8713","39360","39360","37415.7294","dc","null","null","null","null","null","null","[1,2]"
"","canvas-keyboard-response","226","348590","0.0-6.0-4.36","10","","","","","make choice","4367","1","","","critical","d","c","t","160.6713","232.8713","240","164","164","240","trueblood","0.05","h","164","240","240","164","160.6713","232.8713","39360","39360","37415.7294","dc","null","null","null","null","null","null","[1,2]"
"","canvas-keyboard-response","227","348752","0.0-6.0-5.36","10","","","","","clear_screen","null","null","","","critical","d","c","t","160.6713","232.8713","240","164","164","240","trueblood","0.05","h","164","240","240","164","160.6713","232.8713","39360","39360","37415.7294","dc","null","null","null","null","null","null","[1,2]"
"","canvas-keyboard-response","228","348953","0.0-6.0-0.37","10","","","","","pre trial waiting period","null","null","","","critical","t","d","c","164","240","158.0083","227.1683","240","164","trueblood","0.09","h","164","240","240","164","158.0083","227.1683","39360","39360","35894.4834","tc","null","null","null","null","null","null","[1,3]"
"","canvas-keyboard-response","229","349113","0.0-6.0-1.37","10","","","","","clear_screen","null","null","","","critical","t","d","c","164","240","158.0083","227.1683","240","164","trueblood","0.09","h","164","240","240","164","158.0083","227.1683","39360","39360","35894.4834","tc","null","null","null","null","null","null","[1,3]"
"","canvas-keyboard-response","230","350448","0.0-6.0-2.37","10","","","","","rectangles","null","null","","","critical","t","d","c","164","240","158.0083","227.1683","240","164","trueblood","0.09","h","164","240","240","164","158.0083","227.1683","39360","39360","35894.4834","tc","null","null","null","null","null","null","[1,3]"
"","canvas-keyboard-response","231","350607","0.0-6.0-3.37","10","","","","","clear_screen","null","null","","","critical","t","d","c","164","240","158.0083","227.1683","240","164","trueblood","0.09","h","164","240","240","164","158.0083","227.1683","39360","39360","35894.4834","tc","null","null","null","null","null","null","[1,3]"
"","canvas-keyboard-response","232","351726","0.0-6.0-4.37","10","","","","","make choice","1107","1","","","critical","t","d","c","164","240","158.0083","227.1683","240","164","trueblood","0.09","h","164","240","240","164","158.0083","227.1683","39360","39360","35894.4834","tc","null","null","null","null","null","null","[1,3]"
"","canvas-keyboard-response","233","351887","0.0-6.0-5.37","10","","","","","clear_screen","null","null","","","critical","t","d","c","164","240","158.0083","227.1683","240","164","trueblood","0.09","h","164","240","240","164","158.0083","227.1683","39360","39360","35894.4834","tc","null","null","null","null","null","null","[1,3]"
"","canvas-keyboard-response","234","352090","0.0-6.0-0.38","10","","","","","pre trial waiting period","null","null","","","catch","sh","l","sw","194","152","261","230","206","175","trueblood","null","null","null","null","null","null","null","null","null","null","null","","180","200","260","200","36000","52000","[2,3]"
"","canvas-keyboard-response","235","352254","0.0-6.0-1.38","10","","","","","clear_screen","null","null","","","catch","sh","l","sw","194","152","261","230","206","175","trueblood","null","null","null","null","null","null","null","null","null","null","null","","180","200","260","200","36000","52000","[2,3]"
"","canvas-keyboard-response","236","353591","0.0-6.0-2.38","10","","","","","rectangles","null","null","","","catch","sh","l","sw","194","152","261","230","206","175","trueblood","null","null","null","null","null","null","null","null","null","null","null","","180","200","260","200","36000","52000","[2,3]"
"","canvas-keyboard-response","237","353751","0.0-6.0-3.38","10","","","","","clear_screen","null","null","","","catch","sh","l","sw","194","152","261","230","206","175","trueblood","null","null","null","null","null","null","null","null","null","null","null","","180","200","260","200","36000","52000","[2,3]"
"","canvas-keyboard-response","238","354775","0.0-6.0-4.38","10","","","","","make choice","1012","2","","","catch","sh","l","sw","194","152","261","230","206","175","trueblood","null","null","null","null","null","null","null","null","null","null","null","","180","200","260","200","36000","52000","[2,3]"
"","canvas-keyboard-response","239","354933","0.0-6.0-5.38","10","","","","","clear_screen","null","null","","","catch","sh","l","sw","194","152","261","230","206","175","trueblood","null","null","null","null","null","null","null","null","null","null","null","","180","200","260","200","36000","52000","[2,3]"
"","canvas-keyboard-response","240","355134","0.0-6.0-0.39","10","","","","","pre trial waiting period","null","null","","","catch","l","sw","sh","229","238","155","167","232","200","spektor","null","null","null","null","null","null","null","null","null","null","null","","180","200","260","200","36000","52000","[1,2]"
"","canvas-keyboard-response","241","355294","0.0-6.0-1.39","10","","","","","clear_screen","null","null","","","catch","l","sw","sh","229","238","155","167","232","200","spektor","null","null","null","null","null","null","null","null","null","null","null","","180","200","260","200","36000","52000","[1,2]"
"","canvas-keyboard-response","242","356626","0.0-6.0-2.39","10","","","","","rectangles","null","null","","","catch","l","sw","sh","229","238","155","167","232","200","spektor","null","null","null","null","null","null","null","null","null","null","null","","180","200","260","200","36000","52000","[1,2]"
"","canvas-keyboard-response","243","356789","0.0-6.0-3.39","10","","","","","clear_screen","null","null","","","catch","l","sw","sh","229","238","155","167","232","200","spektor","null","null","null","null","null","null","null","null","null","null","null","","180","200","260","200","36000","52000","[1,2]"
"","canvas-keyboard-response","244","356918","0.0-6.0-4.39","10","","","","","make choice","120","2","","","catch","l","sw","sh","229","238","155","167","232","200","spektor","null","null","null","null","null","null","null","null","null","null","null","","180","200","260","200","36000","52000","[1,2]"
"","canvas-keyboard-response","245","357077","0.0-6.0-5.39","10","","","","","clear_screen","null","null","","","catch","l","sw","sh","229","238","155","167","232","200","spektor","null","null","null","null","null","null","null","null","null","null","null","","180","200","260","200","36000","52000","[1,2]"
"","canvas-keyboard-response","246","357279","0.0-6.0-0.40","10","","","","","pre trial waiting period","null","null","","","critical","t","c","d","240","164","164","240","227.1683","158.0083","trueblood","0.09","w","240","164","164","240","227.1683","158.0083","39360","39360","35894.4834","dc","null","null","null","null","null","null","[3,2]"
"","canvas-keyboard-response","247","357443","0.0-6.0-1.40","10","","","","","clear_screen","null","null","","","critical","t","c","d","240","164","164","240","227.1683","158.0083","trueblood","0.09","w","240","164","164","240","227.1683","158.0083","39360","39360","35894.4834","dc","null","null","null","null","null","null","[3,2]"
"","canvas-keyboard-response","248","358782","0.0-6.0-2.40","10","","","","","rectangles","null","null","","","critical","t","c","d","240","164","164","240","227.1683","158.0083","trueblood","0.09","w","240","164","164","240","227.1683","158.0083","39360","39360","35894.4834","dc","null","null","null","null","null","null","[3,2]"
"","canvas-keyboard-response","249","358946","0.0-6.0-3.40","10","","","","","clear_screen","null","null","","","critical","t","c","d","240","164","164","240","227.1683","158.0083","trueblood","0.09","w","240","164","164","240","227.1683","158.0083","39360","39360","35894.4834","dc","null","null","null","null","null","null","[3,2]"
"","canvas-keyboard-response","250","361551","0.0-6.0-4.40","10","","","","","make choice","2594","2","","","critical","t","c","d","240","164","164","240","227.1683","158.0083","trueblood","0.09","w","240","164","164","240","227.1683","158.0083","39360","39360","35894.4834","dc","null","null","null","null","null","null","[3,2]"
"","canvas-keyboard-response","251","361710","0.0-6.0-5.40","10","","","","","clear_screen","null","null","","","critical","t","c","d","240","164","164","240","227.1683","158.0083","trueblood","0.09","w","240","164","164","240","227.1683","158.0083","39360","39360","35894.4834","dc","null","null","null","null","null","null","[3,2]"
"","canvas-keyboard-response","252","361913","0.0-6.0-0.41","10","","","","","pre trial waiting period","null","null","","","critical","d","c","t","164","240","240","164","164","240","spektor","0","h","164","240","240","164","164","240","39360","39360","39360","tc","null","null","null","null","null","null","[3,2]"
"","canvas-keyboard-response","253","362075","0.0-6.0-1.41","10","","","","","clear_screen","null","null","","","critical","d","c","t","164","240","240","164","164","240","spektor","0","h","164","240","240","164","164","240","39360","39360","39360","tc","null","null","null","null","null","null","[3,2]"
"","canvas-keyboard-response","254","363415","0.0-6.0-2.41","10","","","","","rectangles","null","null","","","critical","d","c","t","164","240","240","164","164","240","spektor","0","h","164","240","240","164","164","240","39360","39360","39360","tc","null","null","null","null","null","null","[3,2]"
"","canvas-keyboard-response","255","363574","0.0-6.0-3.41","10","","","","","clear_screen","null","null","","","critical","d","c","t","164","240","240","164","164","240","spektor","0","h","164","240","240","164","164","240","39360","39360","39360","tc","null","null","null","null","null","null","[3,2]"
"","canvas-keyboard-response","256","364279","0.0-6.0-4.41","10","","","","","make choice","697","2","","","critical","d","c","t","164","240","240","164","164","240","spektor","0","h","164","240","240","164","164","240","39360","39360","39360","tc","null","null","null","null","null","null","[3,2]"
"","canvas-keyboard-response","257","364440","0.0-6.0-5.41","10","","","","","clear_screen","null","null","","","critical","d","c","t","164","240","240","164","164","240","spektor","0","h","164","240","240","164","164","240","39360","39360","39360","tc","null","null","null","null","null","null","[3,2]"
"","canvas-keyboard-response","258","364643","0.0-6.0-0.42","10","","","","","pre trial waiting period","null","null","","","critical","d","c","t","237.1485","162.6685","164","240","240","164","spektor","0.02","w","240","164","164","240","237.1485","162.6685","39360","39360","38576.5967","tc","null","null","null","null","null","null","[3,2]"
"","canvas-keyboard-response","259","364803","0.0-6.0-1.42","10","","","","","clear_screen","null","null","","","critical","d","c","t","237.1485","162.6685","164","240","240","164","spektor","0.02","w","240","164","164","240","237.1485","162.6685","39360","39360","38576.5967","tc","null","null","null","null","null","null","[3,2]"
"","canvas-keyboard-response","260","366137","0.0-6.0-2.42","10","","","","","rectangles","null","null","","","critical","d","c","t","237.1485","162.6685","164","240","240","164","spektor","0.02","w","240","164","164","240","237.1485","162.6685","39360","39360","38576.5967","tc","null","null","null","null","null","null","[3,2]"
"","canvas-keyboard-response","261","366296","0.0-6.0-3.42","10","","","","","clear_screen","null","null","","","critical","d","c","t","237.1485","162.6685","164","240","240","164","spektor","0.02","w","240","164","164","240","237.1485","162.6685","39360","39360","38576.5967","tc","null","null","null","null","null","null","[3,2]"
"","canvas-keyboard-response","262","366575","0.0-6.0-4.42","10","","","","","make choice","270","2","","","critical","d","c","t","237.1485","162.6685","164","240","240","164","spektor","0.02","w","240","164","164","240","237.1485","162.6685","39360","39360","38576.5967","tc","null","null","null","null","null","null","[3,2]"
"","canvas-keyboard-response","263","366735","0.0-6.0-5.42","10","","","","","clear_screen","null","null","","","critical","d","c","t","237.1485","162.6685","164","240","240","164","spektor","0.02","w","240","164","164","240","237.1485","162.6685","39360","39360","38576.5967","tc","null","null","null","null","null","null","[3,2]"
"","canvas-keyboard-response","264","366936","0.0-6.0-0.43","10","","","","","pre trial waiting period","null","null","","","critical","t","c","d","164","240","240","164","154.6796","220.0396","trueblood","0.14","h","164","240","240","164","154.6796","220.0396","39360","39360","34035.6388","dc","null","null","null","null","null","null","[3,2]"
"","canvas-keyboard-response","265","367095","0.0-6.0-1.43","10","","","","","clear_screen","null","null","","","critical","t","c","d","164","240","240","164","154.6796","220.0396","trueblood","0.14","h","164","240","240","164","154.6796","220.0396","39360","39360","34035.6388","dc","null","null","null","null","null","null","[3,2]"
"","canvas-keyboard-response","266","368432","0.0-6.0-2.43","10","","","","","rectangles","null","null","","","critical","t","c","d","164","240","240","164","154.6796","220.0396","trueblood","0.14","h","164","240","240","164","154.6796","220.0396","39360","39360","34035.6388","dc","null","null","null","null","null","null","[3,2]"
"","canvas-keyboard-response","267","368590","0.0-6.0-3.43","10","","","","","clear_screen","null","null","","","critical","t","c","d","164","240","240","164","154.6796","220.0396","trueblood","0.14","h","164","240","240","164","154.6796","220.0396","39360","39360","34035.6388","dc","null","null","null","null","null","null","[3,2]"
"","canvas-keyboard-response","268","371975","0.0-6.0-4.43","10","","","","","make choice","3373","3","","","critical","t","c","d","164","240","240","164","154.6796","220.0396","trueblood","0.14","h","164","240","240","164","154.6796","220.0396","39360","39360","34035.6388","dc","null","null","null","null","null","null","[3,2]"
"","canvas-keyboard-response","269","372135","0.0-6.0-5.43","10","","","","","clear_screen","null","null","","","critical","t","c","d","164","240","240","164","154.6796","220.0396","trueblood","0.14","h","164","240","240","164","154.6796","220.0396","39360","39360","34035.6388","dc","null","null","null","null","null","null","[3,2]"
"","canvas-keyboard-response","270","372337","0.0-6.0-0.44","10","","","","","pre trial waiting period","null","null","","","critical","d","t","c","227.1683","158.0083","240","164","164","240","spektor","0.09","w","240","164","164","240","227.1683","158.0083","39360","39360","35894.4834","td","null","null","null","null","null","null","[2,1]"
"","canvas-keyboard-response","271","372499","0.0-6.0-1.44","10","","","","","clear_screen","null","null","","","critical","d","t","c","227.1683","158.0083","240","164","164","240","spektor","0.09","w","240","164","164","240","227.1683","158.0083","39360","39360","35894.4834","td","null","null","null","null","null","null","[2,1]"
"","canvas-keyboard-response","272","373833","0.0-6.0-2.44","10","","","","","rectangles","null","null","","","critical","d","t","c","227.1683","158.0083","240","164","164","240","spektor","0.09","w","240","164","164","240","227.1683","158.0083","39360","39360","35894.4834","td","null","null","null","null","null","null","[2,1]"
"","canvas-keyboard-response","273","373992","0.0-6.0-3.44","10","","","","","clear_screen","null","null","","","critical","d","t","c","227.1683","158.0083","240","164","164","240","spektor","0.09","w","240","164","164","240","227.1683","158.0083","39360","39360","35894.4834","td","null","null","null","null","null","null","[2,1]"
"","canvas-keyboard-response","274","376495","0.0-6.0-4.44","10","","","","","make choice","2492","2","","","critical","d","t","c","227.1683","158.0083","240","164","164","240","spektor","0.09","w","240","164","164","240","227.1683","158.0083","39360","39360","35894.4834","td","null","null","null","null","null","null","[2,1]"
"","canvas-keyboard-response","275","376653","0.0-6.0-5.44","10","","","","","clear_screen","null","null","","","critical","d","t","c","227.1683","158.0083","240","164","164","240","spektor","0.09","w","240","164","164","240","227.1683","158.0083","39360","39360","35894.4834","td","null","null","null","null","null","null","[2,1]"
"","canvas-keyboard-response","276","376855","0.0-6.0-0.45","10","","","","","pre trial waiting period","null","null","","","catch","sw","l","sh","180","200","299","179","197","149","spektor","null","null","null","null","null","null","null","null","null","null","null","","180","200","260","200","36000","52000","[2,3]"
"","canvas-keyboard-response","277","377014","0.0-6.0-1.45","10","","","","","clear_screen","null","null","","","catch","sw","l","sh","180","200","299","179","197","149","spektor","null","null","null","null","null","null","null","null","null","null","null","","180","200","260","200","36000","52000","[2,3]"
"","canvas-keyboard-response","278","378350","0.0-6.0-2.45","10","","","","","rectangles","null","null","","","catch","sw","l","sh","180","200","299","179","197","149","spektor","null","null","null","null","null","null","null","null","null","null","null","","180","200","260","200","36000","52000","[2,3]"
"","canvas-keyboard-response","279","378509","0.0-6.0-3.45","10","","","","","clear_screen","null","null","","","catch","sw","l","sh","180","200","299","179","197","149","spektor","null","null","null","null","null","null","null","null","null","null","null","","180","200","260","200","36000","52000","[2,3]"
"","canvas-keyboard-response","280","379775","0.0-6.0-4.45","10","","","","","make choice","1258","2","","","catch","sw","l","sh","180","200","299","179","197","149","spektor","null","null","null","null","null","null","null","null","null","null","null","","180","200","260","200","36000","52000","[2,3]"
"","canvas-keyboard-response","281","379936","0.0-6.0-5.45","10","","","","","clear_screen","null","null","","","catch","sw","l","sh","180","200","299","179","197","149","spektor","null","null","null","null","null","null","null","null","null","null","null","","180","200","260","200","36000","52000","[2,3]"
"","canvas-keyboard-response","282","380137","0.0-6.0-0.46","10","","","","","pre trial waiting period","null","null","","","critical","t","c","d","164","240","240","164","154.6796","220.0396","spektor","0.14","h","164","240","240","164","154.6796","220.0396","39360","39360","34035.6388","tc","null","null","null","null","null","null","[1,2]"
"","canvas-keyboard-response","283","380298","0.0-6.0-1.46","10","","","","","clear_screen","null","null","","","critical","t","c","d","164","240","240","164","154.6796","220.0396","spektor","0.14","h","164","240","240","164","154.6796","220.0396","39360","39360","34035.6388","tc","null","null","null","null","null","null","[1,2]"
"","canvas-keyboard-response","284","381633","0.0-6.0-2.46","10","","","","","rectangles","null","null","","","critical","t","c","d","164","240","240","164","154.6796","220.0396","spektor","0.14","h","164","240","240","164","154.6796","220.0396","39360","39360","34035.6388","tc","null","null","null","null","null","null","[1,2]"
"","canvas-keyboard-response","285","381795","0.0-6.0-3.46","10","","","","","clear_screen","null","null","","","critical","t","c","d","164","240","240","164","154.6796","220.0396","spektor","0.14","h","164","240","240","164","154.6796","220.0396","39360","39360","34035.6388","tc","null","null","null","null","null","null","[1,2]"
"","canvas-keyboard-response","286","382791","0.0-6.0-4.46","10","","","","","make choice","984","2","","","critical","t","c","d","164","240","240","164","154.6796","220.0396","spektor","0.14","h","164","240","240","164","154.6796","220.0396","39360","39360","34035.6388","tc","null","null","null","null","null","null","[1,2]"
"","canvas-keyboard-response","287","382949","0.0-6.0-5.46","10","","","","","clear_screen","null","null","","","critical","t","c","d","164","240","240","164","154.6796","220.0396","spektor","0.14","h","164","240","240","164","154.6796","220.0396","39360","39360","34035.6388","tc","null","null","null","null","null","null","[1,2]"
"","canvas-keyboard-response","288","383151","0.0-6.0-0.47","10","","","","","pre trial waiting period","null","null","","","critical","c","d","t","240","164","154.6796","220.0396","164","240","spektor","0.14","h","164","240","240","164","154.6796","220.0396","39360","39360","34035.6388","td","null","null","null","null","null","null","[3,2]"
"","canvas-keyboard-response","289","383311","0.0-6.0-1.47","10","","","","","clear_screen","null","null","","","critical","c","d","t","240","164","154.6796","220.0396","164","240","spektor","0.14","h","164","240","240","164","154.6796","220.0396","39360","39360","34035.6388","td","null","null","null","null","null","null","[3,2]"
"","canvas-keyboard-response","290","384647","0.0-6.0-2.47","10","","","","","rectangles","null","null","","","critical","c","d","t","240","164","154.6796","220.0396","164","240","spektor","0.14","h","164","240","240","164","154.6796","220.0396","39360","39360","34035.6388","td","null","null","null","null","null","null","[3,2]"
"","canvas-keyboard-response","291","384807","0.0-6.0-3.47","10","","","","","clear_screen","null","null","","","critical","c","d","t","240","164","154.6796","220.0396","164","240","spektor","0.14","h","164","240","240","164","154.6796","220.0396","39360","39360","34035.6388","td","null","null","null","null","null","null","[3,2]"
"","canvas-keyboard-response","292","386470","0.0-6.0-4.47","10","","","","","make choice","1654","2","","","critical","c","d","t","240","164","154.6796","220.0396","164","240","spektor","0.14","h","164","240","240","164","154.6796","220.0396","39360","39360","34035.6388","td","null","null","null","null","null","null","[3,2]"
"","canvas-keyboard-response","293","386631","0.0-6.0-5.47","10","","","","","clear_screen","null","null","","","critical","c","d","t","240","164","154.6796","220.0396","164","240","spektor","0.14","h","164","240","240","164","154.6796","220.0396","39360","39360","34035.6388","td","null","null","null","null","null","null","[3,2]"
"","canvas-keyboard-response","294","386832","0.0-6.0-0.48","10","","","","","pre trial waiting period","null","null","","","critical","t","c","d","164","240","240","164","164","240","spektor","0","h","164","240","240","164","164","240","39360","39360","39360","dc","null","null","null","null","null","null","[3,2]"
"","canvas-keyboard-response","295","386991","0.0-6.0-1.48","10","","","","","clear_screen","null","null","","","critical","t","c","d","164","240","240","164","164","240","spektor","0","h","164","240","240","164","164","240","39360","39360","39360","dc","null","null","null","null","null","null","[3,2]"
"","canvas-keyboard-response","296","388326","0.0-6.0-2.48","10","","","","","rectangles","null","null","","","critical","t","c","d","164","240","240","164","164","240","spektor","0","h","164","240","240","164","164","240","39360","39360","39360","dc","null","null","null","null","null","null","[3,2]"
"","canvas-keyboard-response","297","388489","0.0-6.0-3.48","10","","","","","clear_screen","null","null","","","critical","t","c","d","164","240","240","164","164","240","spektor","0","h","164","240","240","164","164","240","39360","39360","39360","dc","null","null","null","null","null","null","[3,2]"
"","canvas-keyboard-response","298","389495","0.0-6.0-4.48","10","","","","","make choice","998","2","","","critical","t","c","d","164","240","240","164","164","240","spektor","0","h","164","240","240","164","164","240","39360","39360","39360","dc","null","null","null","null","null","null","[3,2]"
"","canvas-keyboard-response","299","389652","0.0-6.0-5.48","10","","","","","clear_screen","null","null","","","critical","t","c","d","164","240","240","164","164","240","spektor","0","h","164","240","240","164","164","240","39360","39360","39360","dc","null","null","null","null","null","null","[3,2]"
"","canvas-keyboard-response","300","389854","0.0-6.0-0.49","10","","","","","pre trial waiting period","null","null","","","catch","sh","sw","l","181","165","194","174","178","268","spektor","null","null","null","null","null","null","null","null","null","null","null","","180","200","260","200","36000","52000","[1,3]"
"","canvas-keyboard-response","301","390016","0.0-6.0-1.49","10","","","","","clear_screen","null","null","","","catch","sh","sw","l","181","165","194","174","178","268","spektor","null","null","null","null","null","null","null","null","null","null","null","","180","200","260","200","36000","52000","[1,3]"
"","canvas-keyboard-response","302","391355","0.0-6.0-2.49","10","","","","","rectangles","null","null","","","catch","sh","sw","l","181","165","194","174","178","268","spektor","null","null","null","null","null","null","null","null","null","null","null","","180","200","260","200","36000","52000","[1,3]"
"","canvas-keyboard-response","303","391516","0.0-6.0-3.49","10","","","","","clear_screen","null","null","","","catch","sh","sw","l","181","165","194","174","178","268","spektor","null","null","null","null","null","null","null","null","null","null","null","","180","200","260","200","36000","52000","[1,3]"
"","canvas-keyboard-response","304","393000","0.0-6.0-4.49","10","","","","","make choice","1472","1","","","catch","sh","sw","l","181","165","194","174","178","268","spektor","null","null","null","null","null","null","null","null","null","null","null","","180","200","260","200","36000","52000","[1,3]"
"","canvas-keyboard-response","305","393161","0.0-6.0-5.49","10","","","","","clear_screen","null","null","","","catch","sh","sw","l","181","165","194","174","178","268","spektor","null","null","null","null","null","null","null","null","null","null","null","","180","200","260","200","36000","52000","[1,3]"
"","canvas-keyboard-response","306","393363","0.0-6.0-0.50","10","","","","","pre trial waiting period","null","null","","","critical","t","c","d","164","240","240","164","154.6796","220.0396","trueblood","0.14","h","164","240","240","164","154.6796","220.0396","39360","39360","34035.6388","tc","null","null","null","null","null","null","[1,2]"
