"success","trial_type","trial_index","time_elapsed","internal_node_id","sub_n","timeout","failed_images","failed_audio","failed_video","screen_id","rt","response","stimulus","view_history","trial","r1","r2","r3","w1","h1","w2","h2","w3","h3","display","tdd","tdo","tw","th","cw","ch","dw","dh","ta","ca","da","probe","csls","csss","clls","clss","sa","la","probe_rects"
"true","fullscreen","0","2478","0.0-0.0","45","","","","","","","","","","","","","","","","","","","","","","","","","","","","","","","","","","","","","","",""
"true","preload","1","2495","0.0-1.0","45","false","[]","[]","[]","img preload","","","","","","","","","","","","","","","","","","","","","","","","","","","","","","","","","",""
"","survey-html-form","2","12695","0.0-2.0","45","","","","","enter-sub-number","10193","{""response"":""45""}","","","","","","","","","","","","","","","","","","","","","","","","","","","","","","","",""
"","image-button-response","3","33003","0.0-3.0","45","","","","","","20240","0","consent.png","","","","","","","","","","","","","","","","","","","","","","","","","","","","","","",""
"","html-button-response","4","43689","0.0-4.0","45","","","","","intro mssg","10683","0","<div style= ""font-size:25px;"" <p> <strong> Welcome! </strong><br> <p style=""color:#8B0000; font-size:25px;""><strong> Please do NOT exit full screen until you are done with the experiment. </strong> </p><p style=""font-size:25px;color:#8B0000;""> <strong> Your data will be lost <br> if you try to go back or refresh the page after the experiment starts. Feel free to click ""previous"" during the instructions, however.</strong> </p><br><p> <strong> Thanks in advance for your contribution to our research! </strong></p>","","","","","","","","","","","","","","","","","","","","","","","","","","","","","","",""
"","instructions","5","83035","0.0-5.0","45","","","","","instructions","39340","","","[{""page_index"":0,""viewing_time"":7540},{""page_index"":1,""viewing_time"":5847},{""page_index"":2,""viewing_time"":2198},{""page_index"":3,""viewing_time"":11266},{""page_index"":4,""viewing_time"":5049},{""page_index"":5,""viewing_time"":2960},{""page_index"":6,""viewing_time"":3055},{""page_index"":7,""viewing_time"":1425}]","","","","","","","","","","","","","","","","","","","","","","","","","","","","","",""
"","canvas-keyboard-response","6","83241","0.0-6.0-0.0","45","","","","","pre trial waiting period","null","null","","","critical","c","t","d","164","240","240","164","237.1485","162.6685","spektor","0.02","w","240","164","164","240","237.1485","162.6685","39360","39360","38576.5967","td","null","null","null","null","null","null","[2,3]"
"","canvas-keyboard-response","7","83403","0.0-6.0-1.0","45","","","","","clear_screen","null","null","","","critical","c","t","d","164","240","240","164","237.1485","162.6685","spektor","0.02","w","240","164","164","240","237.1485","162.6685","39360","39360","38576.5967","td","null","null","null","null","null","null","[2,3]"
"","canvas-keyboard-response","8","84746","0.0-6.0-2.0","45","","","","","rectangles","null","null","","","critical","c","t","d","164","240","240","164","237.1485","162.6685","spektor","0.02","w","240","164","164","240","237.1485","162.6685","39360","39360","38576.5967","td","null","null","null","null","null","null","[2,3]"
"","canvas-keyboard-response","9","84905","0.0-6.0-3.0","45","","","","","clear_screen","null","null","","","critical","c","t","d","164","240","240","164","237.1485","162.6685","spektor","0.02","w","240","164","164","240","237.1485","162.6685","39360","39360","38576.5967","td","null","null","null","null","null","null","[2,3]"
"","canvas-keyboard-response","10","90722","0.0-6.0-4.0","45","","","","","make choice","5806","2","","","critical","c","t","d","164","240","240","164","237.1485","162.6685","spektor","0.02","w","240","164","164","240","237.1485","162.6685","39360","39360","38576.5967","td","null","null","null","null","null","null","[2,3]"
"","canvas-keyboard-response","11","90881","0.0-6.0-5.0","45","","","","","clear_screen","null","null","","","critical","c","t","d","164","240","240","164","237.1485","162.6685","spektor","0.02","w","240","164","164","240","237.1485","162.6685","39360","39360","38576.5967","td","null","null","null","null","null","null","[2,3]"
"","canvas-keyboard-response","12","91083","0.0-6.0-0.1","45","","","","","pre trial waiting period","null","null","","","critical","t","c","d","240","164","164","240","227.1683","158.0083","spektor","0.09","w","240","164","164","240","227.1683","158.0083","39360","39360","35894.4834","td","null","null","null","null","null","null","[1,3]"
"","canvas-keyboard-response","13","91243","0.0-6.0-1.1","45","","","","","clear_screen","null","null","","","critical","t","c","d","240","164","164","240","227.1683","158.0083","spektor","0.09","w","240","164","164","240","227.1683","158.0083","39360","39360","35894.4834","td","null","null","null","null","null","null","[1,3]"
"","canvas-keyboard-response","14","92579","0.0-6.0-2.1","45","","","","","rectangles","null","null","","","critical","t","c","d","240","164","164","240","227.1683","158.0083","spektor","0.09","w","240","164","164","240","227.1683","158.0083","39360","39360","35894.4834","td","null","null","null","null","null","null","[1,3]"
"","canvas-keyboard-response","15","92740","0.0-6.0-3.1","45","","","","","clear_screen","null","null","","","critical","t","c","d","240","164","164","240","227.1683","158.0083","spektor","0.09","w","240","164","164","240","227.1683","158.0083","39360","39360","35894.4834","td","null","null","null","null","null","null","[1,3]"
"","canvas-keyboard-response","16","95514","0.0-6.0-4.1","45","","","","","make choice","2760","3","","","critical","t","c","d","240","164","164","240","227.1683","158.0083","spektor","0.09","w","240","164","164","240","227.1683","158.0083","39360","39360","35894.4834","td","null","null","null","null","null","null","[1,3]"
"","canvas-keyboard-response","17","95674","0.0-6.0-5.1","45","","","","","clear_screen","null","null","","","critical","t","c","d","240","164","164","240","227.1683","158.0083","spektor","0.09","w","240","164","164","240","227.1683","158.0083","39360","39360","35894.4834","td","null","null","null","null","null","null","[1,3]"
"","canvas-keyboard-response","18","95876","0.0-6.0-0.2","45","","","","","pre trial waiting period","null","null","","","catch","sh","sw","l","205","196","153","224","247","237","spektor","null","null","null","null","null","null","null","null","null","null","null","","180","200","260","200","36000","52000","[1,3]"
"","canvas-keyboard-response","19","96039","0.0-6.0-1.2","45","","","","","clear_screen","null","null","","","catch","sh","sw","l","205","196","153","224","247","237","spektor","null","null","null","null","null","null","null","null","null","null","null","","180","200","260","200","36000","52000","[1,3]"
"","canvas-keyboard-response","20","97375","0.0-6.0-2.2","45","","","","","rectangles","null","null","","","catch","sh","sw","l","205","196","153","224","247","237","spektor","null","null","null","null","null","null","null","null","null","null","null","","180","200","260","200","36000","52000","[1,3]"
"","canvas-keyboard-response","21","97536","0.0-6.0-3.2","45","","","","","clear_screen","null","null","","","catch","sh","sw","l","205","196","153","224","247","237","spektor","null","null","null","null","null","null","null","null","null","null","null","","180","200","260","200","36000","52000","[1,3]"
"","canvas-keyboard-response","22","98890","0.0-6.0-4.2","45","","","","","make choice","1342","3","","","catch","sh","sw","l","205","196","153","224","247","237","spektor","null","null","null","null","null","null","null","null","null","null","null","","180","200","260","200","36000","52000","[1,3]"
"","canvas-keyboard-response","23","99051","0.0-6.0-5.2","45","","","","","clear_screen","null","null","","","catch","sh","sw","l","205","196","153","224","247","237","spektor","null","null","null","null","null","null","null","null","null","null","null","","180","200","260","200","36000","52000","[1,3]"
"","canvas-keyboard-response","24","99252","0.0-6.0-0.3","45","","","","","pre trial waiting period","null","null","","","critical","c","t","d","164","240","240","164","220.0396","154.6796","spektor","0.14","w","240","164","164","240","220.0396","154.6796","39360","39360","34035.6388","dc","null","null","null","null","null","null","[3,1]"
"","canvas-keyboard-response","25","99411","0.0-6.0-1.3","45","","","","","clear_screen","null","null","","","critical","c","t","d","164","240","240","164","220.0396","154.6796","spektor","0.14","w","240","164","164","240","220.0396","154.6796","39360","39360","34035.6388","dc","null","null","null","null","null","null","[3,1]"
"","canvas-keyboard-response","26","100748","0.0-6.0-2.3","45","","","","","rectangles","null","null","","","critical","c","t","d","164","240","240","164","220.0396","154.6796","spektor","0.14","w","240","164","164","240","220.0396","154.6796","39360","39360","34035.6388","dc","null","null","null","null","null","null","[3,1]"
"","canvas-keyboard-response","27","100913","0.0-6.0-3.3","45","","","","","clear_screen","null","null","","","critical","c","t","d","164","240","240","164","220.0396","154.6796","spektor","0.14","w","240","164","164","240","220.0396","154.6796","39360","39360","34035.6388","dc","null","null","null","null","null","null","[3,1]"
"","canvas-keyboard-response","28","101858","0.0-6.0-4.3","45","","","","","make choice","936","1","","","critical","c","t","d","164","240","240","164","220.0396","154.6796","spektor","0.14","w","240","164","164","240","220.0396","154.6796","39360","39360","34035.6388","dc","null","null","null","null","null","null","[3,1]"
"","canvas-keyboard-response","29","102017","0.0-6.0-5.3","45","","","","","clear_screen","null","null","","","critical","c","t","d","164","240","240","164","220.0396","154.6796","spektor","0.14","w","240","164","164","240","220.0396","154.6796","39360","39360","34035.6388","dc","null","null","null","null","null","null","[3,1]"
"","canvas-keyboard-response","30","102219","0.0-6.0-0.4","45","","","","","pre trial waiting period","null","null","","","critical","c","t","d","240","164","164","240","162.6685","237.1485","trueblood","0.02","h","164","240","240","164","162.6685","237.1485","39360","39360","38576.5967","dc","null","null","null","null","null","null","[3,1]"
"","canvas-keyboard-response","31","102382","0.0-6.0-1.4","45","","","","","clear_screen","null","null","","","critical","c","t","d","240","164","164","240","162.6685","237.1485","trueblood","0.02","h","164","240","240","164","162.6685","237.1485","39360","39360","38576.5967","dc","null","null","null","null","null","null","[3,1]"
"","canvas-keyboard-response","32","103719","0.0-6.0-2.4","45","","","","","rectangles","null","null","","","critical","c","t","d","240","164","164","240","162.6685","237.1485","trueblood","0.02","h","164","240","240","164","162.6685","237.1485","39360","39360","38576.5967","dc","null","null","null","null","null","null","[3,1]"
"","canvas-keyboard-response","33","103879","0.0-6.0-3.4","45","","","","","clear_screen","null","null","","","critical","c","t","d","240","164","164","240","162.6685","237.1485","trueblood","0.02","h","164","240","240","164","162.6685","237.1485","39360","39360","38576.5967","dc","null","null","null","null","null","null","[3,1]"
"","canvas-keyboard-response","34","105586","0.0-6.0-4.4","45","","","","","make choice","1695","3","","","critical","c","t","d","240","164","164","240","162.6685","237.1485","trueblood","0.02","h","164","240","240","164","162.6685","237.1485","39360","39360","38576.5967","dc","null","null","null","null","null","null","[3,1]"
"","canvas-keyboard-response","35","105745","0.0-6.0-5.4","45","","","","","clear_screen","null","null","","","critical","c","t","d","240","164","164","240","162.6685","237.1485","trueblood","0.02","h","164","240","240","164","162.6685","237.1485","39360","39360","38576.5967","dc","null","null","null","null","null","null","[3,1]"
"","canvas-keyboard-response","36","105947","0.0-6.0-0.5","45","","","","","pre trial waiting period","null","null","","","critical","d","t","c","154.6796","220.0396","164","240","240","164","spektor","0.14","h","164","240","240","164","154.6796","220.0396","39360","39360","34035.6388","tc","null","null","null","null","null","null","[2,3]"
"","canvas-keyboard-response","37","106107","0.0-6.0-1.5","45","","","","","clear_screen","null","null","","","critical","d","t","c","154.6796","220.0396","164","240","240","164","spektor","0.14","h","164","240","240","164","154.6796","220.0396","39360","39360","34035.6388","tc","null","null","null","null","null","null","[2,3]"
"","canvas-keyboard-response","38","107448","0.0-6.0-2.5","45","","","","","rectangles","null","null","","","critical","d","t","c","154.6796","220.0396","164","240","240","164","spektor","0.14","h","164","240","240","164","154.6796","220.0396","39360","39360","34035.6388","tc","null","null","null","null","null","null","[2,3]"
"","canvas-keyboard-response","39","107607","0.0-6.0-3.5","45","","","","","clear_screen","null","null","","","critical","d","t","c","154.6796","220.0396","164","240","240","164","spektor","0.14","h","164","240","240","164","154.6796","220.0396","39360","39360","34035.6388","tc","null","null","null","null","null","null","[2,3]"
"","canvas-keyboard-response","40","108640","0.0-6.0-4.5","45","","","","","make choice","1024","2","","","critical","d","t","c","154.6796","220.0396","164","240","240","164","spektor","0.14","h","164","240","240","164","154.6796","220.0396","39360","39360","34035.6388","tc","null","null","null","null","null","null","[2,3]"
"","canvas-keyboard-response","41","108796","0.0-6.0-5.5","45","","","","","clear_screen","null","null","","","critical","d","t","c","154.6796","220.0396","164","240","240","164","spektor","0.14","h","164","240","240","164","154.6796","220.0396","39360","39360","34035.6388","tc","null","null","null","null","null","null","[2,3]"
"","canvas-keyboard-response","42","109000","0.0-6.0-0.6","45","","","","","pre trial waiting period","null","null","","","critical","d","t","c","154.6796","220.0396","164","240","240","164","trueblood","0.14","h","164","240","240","164","154.6796","220.0396","39360","39360","34035.6388","tc","null","null","null","null","null","null","[2,3]"
"","canvas-keyboard-response","43","109160","0.0-6.0-1.6","45","","","","","clear_screen","null","null","","","critical","d","t","c","154.6796","220.0396","164","240","240","164","trueblood","0.14","h","164","240","240","164","154.6796","220.0396","39360","39360","34035.6388","tc","null","null","null","null","null","null","[2,3]"
"","canvas-keyboard-response","44","110498","0.0-6.0-2.6","45","","","","","rectangles","null","null","","","critical","d","t","c","154.6796","220.0396","164","240","240","164","trueblood","0.14","h","164","240","240","164","154.6796","220.0396","39360","39360","34035.6388","tc","null","null","null","null","null","null","[2,3]"
"","canvas-keyboard-response","45","110662","0.0-6.0-3.6","45","","","","","clear_screen","null","null","","","critical","d","t","c","154.6796","220.0396","164","240","240","164","trueblood","0.14","h","164","240","240","164","154.6796","220.0396","39360","39360","34035.6388","tc","null","null","null","null","null","null","[2,3]"
"","canvas-keyboard-response","46","112177","0.0-6.0-4.6","45","","","","","make choice","1510","2","","","critical","d","t","c","154.6796","220.0396","164","240","240","164","trueblood","0.14","h","164","240","240","164","154.6796","220.0396","39360","39360","34035.6388","tc","null","null","null","null","null","null","[2,3]"
"","canvas-keyboard-response","47","112337","0.0-6.0-5.6","45","","","","","clear_screen","null","null","","","critical","d","t","c","154.6796","220.0396","164","240","240","164","trueblood","0.14","h","164","240","240","164","154.6796","220.0396","39360","39360","34035.6388","tc","null","null","null","null","null","null","[2,3]"
"","canvas-keyboard-response","48","112538","0.0-6.0-0.7","45","","","","","pre trial waiting period","null","null","","","critical","c","t","d","164","240","240","164","220.0396","154.6796","trueblood","0.14","w","240","164","164","240","220.0396","154.6796","39360","39360","34035.6388","tc","null","null","null","null","null","null","[2,1]"
"","canvas-keyboard-response","49","112697","0.0-6.0-1.7","45","","","","","clear_screen","null","null","","","critical","c","t","d","164","240","240","164","220.0396","154.6796","trueblood","0.14","w","240","164","164","240","220.0396","154.6796","39360","39360","34035.6388","tc","null","null","null","null","null","null","[2,1]"
"","canvas-keyboard-response","50","114033","0.0-6.0-2.7","45","","","","","rectangles","null","null","","","critical","c","t","d","164","240","240","164","220.0396","154.6796","trueblood","0.14","w","240","164","164","240","220.0396","154.6796","39360","39360","34035.6388","tc","null","null","null","null","null","null","[2,1]"
"","canvas-keyboard-response","51","114196","0.0-6.0-3.7","45","","","","","clear_screen","null","null","","","critical","c","t","d","164","240","240","164","220.0396","154.6796","trueblood","0.14","w","240","164","164","240","220.0396","154.6796","39360","39360","34035.6388","tc","null","null","null","null","null","null","[2,1]"
"","canvas-keyboard-response","52","116458","0.0-6.0-4.7","45","","","","","make choice","2251","1","","","critical","c","t","d","164","240","240","164","220.0396","154.6796","trueblood","0.14","w","240","164","164","240","220.0396","154.6796","39360","39360","34035.6388","tc","null","null","null","null","null","null","[2,1]"
"","canvas-keyboard-response","53","116618","0.0-6.0-5.7","45","","","","","clear_screen","null","null","","","critical","c","t","d","164","240","240","164","220.0396","154.6796","trueblood","0.14","w","240","164","164","240","220.0396","154.6796","39360","39360","34035.6388","tc","null","null","null","null","null","null","[2,1]"
"","canvas-keyboard-response","54","116818","0.0-6.0-0.8","45","","","","","pre trial waiting period","null","null","","","catch","sh","l","sw","239","196","184","259","219","212","spektor","null","null","null","null","null","null","null","null","null","null","null","","180","200","260","200","36000","52000","[2,3]"
"","canvas-keyboard-response","55","116981","0.0-6.0-1.8","45","","","","","clear_screen","null","null","","","catch","sh","l","sw","239","196","184","259","219","212","spektor","null","null","null","null","null","null","null","null","null","null","null","","180","200","260","200","36000","52000","[2,3]"
"","canvas-keyboard-response","56","118317","0.0-6.0-2.8","45","","","","","rectangles","null","null","","","catch","sh","l","sw","239","196","184","259","219","212","spektor","null","null","null","null","null","null","null","null","null","null","null","","180","200","260","200","36000","52000","[2,3]"
"","canvas-keyboard-response","57","118474","0.0-6.0-3.8","45","","","","","clear_screen","null","null","","","catch","sh","l","sw","239","196","184","259","219","212","spektor","null","null","null","null","null","null","null","null","null","null","null","","180","200","260","200","36000","52000","[2,3]"
"","canvas-keyboard-response","58","119505","0.0-6.0-4.8","45","","","","","make choice","1019","3","","","catch","sh","l","sw","239","196","184","259","219","212","spektor","null","null","null","null","null","null","null","null","null","null","null","","180","200","260","200","36000","52000","[2,3]"
"","canvas-keyboard-response","59","119664","0.0-6.0-5.8","45","","","","","clear_screen","null","null","","","catch","sh","l","sw","239","196","184","259","219","212","spektor","null","null","null","null","null","null","null","null","null","null","null","","180","200","260","200","36000","52000","[2,3]"
"","canvas-keyboard-response","60","119865","0.0-6.0-0.9","45","","","","","pre trial waiting period","null","null","","","critical","c","t","d","240","164","164","240","158.0083","227.1683","spektor","0.09","h","164","240","240","164","158.0083","227.1683","39360","39360","35894.4834","td","null","null","null","null","null","null","[2,3]"
"","canvas-keyboard-response","61","120025","0.0-6.0-1.9","45","","","","","clear_screen","null","null","","","critical","c","t","d","240","164","164","240","158.0083","227.1683","spektor","0.09","h","164","240","240","164","158.0083","227.1683","39360","39360","35894.4834","td","null","null","null","null","null","null","[2,3]"
"","canvas-keyboard-response","62","121361","0.0-6.0-2.9","45","","","","","rectangles","null","null","","","critical","c","t","d","240","164","164","240","158.0083","227.1683","spektor","0.09","h","164","240","240","164","158.0083","227.1683","39360","39360","35894.4834","td","null","null","null","null","null","null","[2,3]"
"","canvas-keyboard-response","63","121520","0.0-6.0-3.9","45","","","","","clear_screen","null","null","","","critical","c","t","d","240","164","164","240","158.0083","227.1683","spektor","0.09","h","164","240","240","164","158.0083","227.1683","39360","39360","35894.4834","td","null","null","null","null","null","null","[2,3]"
"","canvas-keyboard-response","64","124441","0.0-6.0-4.9","45","","","","","make choice","2914","2","","","critical","c","t","d","240","164","164","240","158.0083","227.1683","spektor","0.09","h","164","240","240","164","158.0083","227.1683","39360","39360","35894.4834","td","null","null","null","null","null","null","[2,3]"
"","canvas-keyboard-response","65","124600","0.0-6.0-5.9","45","","","","","clear_screen","null","null","","","critical","c","t","d","240","164","164","240","158.0083","227.1683","spektor","0.09","h","164","240","240","164","158.0083","227.1683","39360","39360","35894.4834","td","null","null","null","null","null","null","[2,3]"
"","canvas-keyboard-response","66","124803","0.0-6.0-0.10","45","","","","","pre trial waiting period","null","null","","","catch","sh","l","sw","161","219","195","299","183","202","spektor","null","null","null","null","null","null","null","null","null","null","null","","180","200","260","200","36000","52000","[2,3]"
"","canvas-keyboard-response","67","124961","0.0-6.0-1.10","45","","","","","clear_screen","null","null","","","catch","sh","l","sw","161","219","195","299","183","202","spektor","null","null","null","null","null","null","null","null","null","null","null","","180","200","260","200","36000","52000","[2,3]"
"","canvas-keyboard-response","68","126298","0.0-6.0-2.10","45","","","","","rectangles","null","null","","","catch","sh","l","sw","161","219","195","299","183","202","spektor","null","null","null","null","null","null","null","null","null","null","null","","180","200","260","200","36000","52000","[2,3]"
"","canvas-keyboard-response","69","126457","0.0-6.0-3.10","45","","","","","clear_screen","null","null","","","catch","sh","l","sw","161","219","195","299","183","202","spektor","null","null","null","null","null","null","null","null","null","null","null","","180","200","260","200","36000","52000","[2,3]"
"","canvas-keyboard-response","70","127458","0.0-6.0-4.10","45","","","","","make choice","990","2","","","catch","sh","l","sw","161","219","195","299","183","202","spektor","null","null","null","null","null","null","null","null","null","null","null","","180","200","260","200","36000","52000","[2,3]"
"","canvas-keyboard-response","71","127619","0.0-6.0-5.10","45","","","","","clear_screen","null","null","","","catch","sh","l","sw","161","219","195","299","183","202","spektor","null","null","null","null","null","null","null","null","null","null","null","","180","200","260","200","36000","52000","[2,3]"
"","canvas-keyboard-response","72","127820","0.0-6.0-0.11","45","","","","","pre trial waiting period","null","null","","","catch","sw","sh","l","180","200","239","188","267","204","trueblood","null","null","null","null","null","null","null","null","null","null","null","","180","200","260","200","36000","52000","[1,3]"
"","canvas-keyboard-response","73","127981","0.0-6.0-1.11","45","","","","","clear_screen","null","null","","","catch","sw","sh","l","180","200","239","188","267","204","trueblood","null","null","null","null","null","null","null","null","null","null","null","","180","200","260","200","36000","52000","[1,3]"
"","canvas-keyboard-response","74","129315","0.0-6.0-2.11","45","","","","","rectangles","null","null","","","catch","sw","sh","l","180","200","239","188","267","204","trueblood","null","null","null","null","null","null","null","null","null","null","null","","180","200","260","200","36000","52000","[1,3]"
"","canvas-keyboard-response","75","129475","0.0-6.0-3.11","45","","","","","clear_screen","null","null","","","catch","sw","sh","l","180","200","239","188","267","204","trueblood","null","null","null","null","null","null","null","null","null","null","null","","180","200","260","200","36000","52000","[1,3]"
"","canvas-keyboard-response","76","130865","0.0-6.0-4.11","45","","","","","make choice","1380","3","","","catch","sw","sh","l","180","200","239","188","267","204","trueblood","null","null","null","null","null","null","null","null","null","null","null","","180","200","260","200","36000","52000","[1,3]"
"","canvas-keyboard-response","77","131024","0.0-6.0-5.11","45","","","","","clear_screen","null","null","","","catch","sw","sh","l","180","200","239","188","267","204","trueblood","null","null","null","null","null","null","null","null","null","null","null","","180","200","260","200","36000","52000","[1,3]"
"","canvas-keyboard-response","78","131226","0.0-6.0-0.12","45","","","","","pre trial waiting period","null","null","","","critical","c","t","d","164","240","240","164","240","164","trueblood","0","w","240","164","164","240","240","164","39360","39360","39360","dc","null","null","null","null","null","null","[3,1]"
"","canvas-keyboard-response","79","131385","0.0-6.0-1.12","45","","","","","clear_screen","null","null","","","critical","c","t","d","164","240","240","164","240","164","trueblood","0","w","240","164","164","240","240","164","39360","39360","39360","dc","null","null","null","null","null","null","[3,1]"
"","canvas-keyboard-response","80","132723","0.0-6.0-2.12","45","","","","","rectangles","null","null","","","critical","c","t","d","164","240","240","164","240","164","trueblood","0","w","240","164","164","240","240","164","39360","39360","39360","dc","null","null","null","null","null","null","[3,1]"
"","canvas-keyboard-response","81","132883","0.0-6.0-3.12","45","","","","","clear_screen","null","null","","","critical","c","t","d","164","240","240","164","240","164","trueblood","0","w","240","164","164","240","240","164","39360","39360","39360","dc","null","null","null","null","null","null","[3,1]"
"","canvas-keyboard-response","82","133914","0.0-6.0-4.12","45","","","","","make choice","1023","1","","","critical","c","t","d","164","240","240","164","240","164","trueblood","0","w","240","164","164","240","240","164","39360","39360","39360","dc","null","null","null","null","null","null","[3,1]"
"","canvas-keyboard-response","83","134074","0.0-6.0-5.12","45","","","","","clear_screen","null","null","","","critical","c","t","d","164","240","240","164","240","164","trueblood","0","w","240","164","164","240","240","164","39360","39360","39360","dc","null","null","null","null","null","null","[3,1]"
"","canvas-keyboard-response","84","134279","0.0-6.0-0.13","45","","","","","pre trial waiting period","null","null","","","critical","t","c","d","240","164","164","240","240","164","trueblood","0","w","240","164","164","240","240","164","39360","39360","39360","td","null","null","null","null","null","null","[1,3]"
"","canvas-keyboard-response","85","134445","0.0-6.0-1.13","45","","","","","clear_screen","null","null","","","critical","t","c","d","240","164","164","240","240","164","trueblood","0","w","240","164","164","240","240","164","39360","39360","39360","td","null","null","null","null","null","null","[1,3]"
"","canvas-keyboard-response","86","135785","0.0-6.0-2.13","45","","","","","rectangles","null","null","","","critical","t","c","d","240","164","164","240","240","164","trueblood","0","w","240","164","164","240","240","164","39360","39360","39360","td","null","null","null","null","null","null","[1,3]"
"","canvas-keyboard-response","87","135948","0.0-6.0-3.13","45","","","","","clear_screen","null","null","","","critical","t","c","d","240","164","164","240","240","164","trueblood","0","w","240","164","164","240","240","164","39360","39360","39360","td","null","null","null","null","null","null","[1,3]"
"","canvas-keyboard-response","88","139401","0.0-6.0-4.13","45","","","","","make choice","3440","3","","","critical","t","c","d","240","164","164","240","240","164","trueblood","0","w","240","164","164","240","240","164","39360","39360","39360","td","null","null","null","null","null","null","[1,3]"
"","canvas-keyboard-response","89","139563","0.0-6.0-5.13","45","","","","","clear_screen","null","null","","","critical","t","c","d","240","164","164","240","240","164","trueblood","0","w","240","164","164","240","240","164","39360","39360","39360","td","null","null","null","null","null","null","[1,3]"
"","canvas-keyboard-response","90","139765","0.0-6.0-0.14","45","","","","","pre trial waiting period","null","null","","","catch","l","sh","sw","247","197","228","156","177","200","trueblood","null","null","null","null","null","null","null","null","null","null","null","","180","200","260","200","36000","52000","[1,3]"
"","canvas-keyboard-response","91","139927","0.0-6.0-1.14","45","","","","","clear_screen","null","null","","","catch","l","sh","sw","247","197","228","156","177","200","trueblood","null","null","null","null","null","null","null","null","null","null","null","","180","200","260","200","36000","52000","[1,3]"
"","canvas-keyboard-response","92","141264","0.0-6.0-2.14","45","","","","","rectangles","null","null","","","catch","l","sh","sw","247","197","228","156","177","200","trueblood","null","null","null","null","null","null","null","null","null","null","null","","180","200","260","200","36000","52000","[1,3]"
"","canvas-keyboard-response","93","141428","0.0-6.0-3.14","45","","","","","clear_screen","null","null","","","catch","l","sh","sw","247","197","228","156","177","200","trueblood","null","null","null","null","null","null","null","null","null","null","null","","180","200","260","200","36000","52000","[1,3]"
"","canvas-keyboard-response","94","143049","0.0-6.0-4.14","45","","","","","make choice","1611","1","","","catch","l","sh","sw","247","197","228","156","177","200","trueblood","null","null","null","null","null","null","null","null","null","null","null","","180","200","260","200","36000","52000","[1,3]"
"","canvas-keyboard-response","95","143212","0.0-6.0-5.14","45","","","","","clear_screen","null","null","","","catch","l","sh","sw","247","197","228","156","177","200","trueblood","null","null","null","null","null","null","null","null","null","null","null","","180","200","260","200","36000","52000","[1,3]"
"","canvas-keyboard-response","96","143413","0.0-6.0-0.15","45","","","","","pre trial waiting period","null","null","","","critical","t","c","d","164","240","240","164","164","240","trueblood","0","h","164","240","240","164","164","240","39360","39360","39360","tc","null","null","null","null","null","null","[1,2]"
"","canvas-keyboard-response","97","143576","0.0-6.0-1.15","45","","","","","clear_screen","null","null","","","critical","t","c","d","164","240","240","164","164","240","trueblood","0","h","164","240","240","164","164","240","39360","39360","39360","tc","null","null","null","null","null","null","[1,2]"
"","canvas-keyboard-response","98","144916","0.0-6.0-2.15","45","","","","","rectangles","null","null","","","critical","t","c","d","164","240","240","164","164","240","trueblood","0","h","164","240","240","164","164","240","39360","39360","39360","tc","null","null","null","null","null","null","[1,2]"
"","canvas-keyboard-response","99","145074","0.0-6.0-3.15","45","","","","","clear_screen","null","null","","","critical","t","c","d","164","240","240","164","164","240","trueblood","0","h","164","240","240","164","164","240","39360","39360","39360","tc","null","null","null","null","null","null","[1,2]"
"","canvas-keyboard-response","100","146593","0.0-6.0-4.15","45","","","","","make choice","1510","1","","","critical","t","c","d","164","240","240","164","164","240","trueblood","0","h","164","240","240","164","164","240","39360","39360","39360","tc","null","null","null","null","null","null","[1,2]"
"","canvas-keyboard-response","101","146753","0.0-6.0-5.15","45","","","","","clear_screen","null","null","","","critical","t","c","d","164","240","240","164","164","240","trueblood","0","h","164","240","240","164","164","240","39360","39360","39360","tc","null","null","null","null","null","null","[1,2]"
"","canvas-keyboard-response","102","146954","0.0-6.0-0.16","45","","","","","pre trial waiting period","null","null","","","critical","t","c","d","240","164","164","240","232.8713","160.6713","spektor","0.05","w","240","164","164","240","232.8713","160.6713","39360","39360","37415.7294","dc","null","null","null","null","null","null","[3,2]"
"","canvas-keyboard-response","103","147116","0.0-6.0-1.16","45","","","","","clear_screen","null","null","","","critical","t","c","d","240","164","164","240","232.8713","160.6713","spektor","0.05","w","240","164","164","240","232.8713","160.6713","39360","39360","37415.7294","dc","null","null","null","null","null","null","[3,2]"
"","canvas-keyboard-response","104","148453","0.0-6.0-2.16","45","","","","","rectangles","null","null","","","critical","t","c","d","240","164","164","240","232.8713","160.6713","spektor","0.05","w","240","164","164","240","232.8713","160.6713","39360","39360","37415.7294","dc","null","null","null","null","null","null","[3,2]"
"","canvas-keyboard-response","105","148613","0.0-6.0-3.16","45","","","","","clear_screen","null","null","","","critical","t","c","d","240","164","164","240","232.8713","160.6713","spektor","0.05","w","240","164","164","240","232.8713","160.6713","39360","39360","37415.7294","dc","null","null","null","null","null","null","[3,2]"
"","canvas-keyboard-response","106","149978","0.0-6.0-4.16","45","","","","","make choice","1358","2","","","critical","t","c","d","240","164","164","240","232.8713","160.6713","spektor","0.05","w","240","164","164","240","232.8713","160.6713","39360","39360","37415.7294","dc","null","null","null","null","null","null","[3,2]"
"","canvas-keyboard-response","107","150136","0.0-6.0-5.16","45","","","","","clear_screen","null","null","","","critical","t","c","d","240","164","164","240","232.8713","160.6713","spektor","0.05","w","240","164","164","240","232.8713","160.6713","39360","39360","37415.7294","dc","null","null","null","null","null","null","[3,2]"
"","canvas-keyboard-response","108","150337","0.0-6.0-0.17","45","","","","","pre trial waiting period","null","null","","","catch","sw","sh","l","180","200","199","167","229","196","trueblood","null","null","null","null","null","null","null","null","null","null","null","","180","200","260","200","36000","52000","[2,3]"
"","canvas-keyboard-response","109","150497","0.0-6.0-1.17","45","","","","","clear_screen","null","null","","","catch","sw","sh","l","180","200","199","167","229","196","trueblood","null","null","null","null","null","null","null","null","null","null","null","","180","200","260","200","36000","52000","[2,3]"
"","canvas-keyboard-response","110","151833","0.0-6.0-2.17","45","","","","","rectangles","null","null","","","catch","sw","sh","l","180","200","199","167","229","196","trueblood","null","null","null","null","null","null","null","null","null","null","null","","180","200","260","200","36000","52000","[2,3]"
"","canvas-keyboard-response","111","151992","0.0-6.0-3.17","45","","","","","clear_screen","null","null","","","catch","sw","sh","l","180","200","199","167","229","196","trueblood","null","null","null","null","null","null","null","null","null","null","null","","180","200","260","200","36000","52000","[2,3]"
"","canvas-keyboard-response","112","152928","0.0-6.0-4.17","45","","","","","make choice","926","3","","","catch","sw","sh","l","180","200","199","167","229","196","trueblood","null","null","null","null","null","null","null","null","null","null","null","","180","200","260","200","36000","52000","[2,3]"
"","canvas-keyboard-response","113","153083","0.0-6.0-5.17","45","","","","","clear_screen","null","null","","","catch","sw","sh","l","180","200","199","167","229","196","trueblood","null","null","null","null","null","null","null","null","null","null","null","","180","200","260","200","36000","52000","[2,3]"
"","canvas-keyboard-response","114","153284","0.0-6.0-0.18","45","","","","","pre trial waiting period","null","null","","","critical","c","t","d","164","240","240","164","237.1485","162.6685","trueblood","0.02","w","240","164","164","240","237.1485","162.6685","39360","39360","38576.5967","dc","null","null","null","null","null","null","[3,1]"
"","canvas-keyboard-response","115","153445","0.0-6.0-1.18","45","","","","","clear_screen","null","null","","","critical","c","t","d","164","240","240","164","237.1485","162.6685","trueblood","0.02","w","240","164","164","240","237.1485","162.6685","39360","39360","38576.5967","dc","null","null","null","null","null","null","[3,1]"
"","canvas-keyboard-response","116","154779","0.0-6.0-2.18","45","","","","","rectangles","null","null","","","critical","c","t","d","164","240","240","164","237.1485","162.6685","trueblood","0.02","w","240","164","164","240","237.1485","162.6685","39360","39360","38576.5967","dc","null","null","null","null","null","null","[3,1]"
"","canvas-keyboard-response","117","154939","0.0-6.0-3.18","45","","","","","clear_screen","null","null","","","critical","c","t","d","164","240","240","164","237.1485","162.6685","trueblood","0.02","w","240","164","164","240","237.1485","162.6685","39360","39360","38576.5967","dc","null","null","null","null","null","null","[3,1]"
"","canvas-keyboard-response","118","156537","0.0-6.0-4.18","45","","","","","make choice","1591","3","","","critical","c","t","d","164","240","240","164","237.1485","162.6685","trueblood","0.02","w","240","164","164","240","237.1485","162.6685","39360","39360","38576.5967","dc","null","null","null","null","null","null","[3,1]"
"","canvas-keyboard-response","119","156697","0.0-6.0-5.18","45","","","","","clear_screen","null","null","","","critical","c","t","d","164","240","240","164","237.1485","162.6685","trueblood","0.02","w","240","164","164","240","237.1485","162.6685","39360","39360","38576.5967","dc","null","null","null","null","null","null","[3,1]"
"","canvas-keyboard-response","120","156897","0.0-6.0-0.19","45","","","","","pre trial waiting period","null","null","","","critical","c","d","t","164","240","232.8713","160.6713","240","164","trueblood","0.05","w","240","164","164","240","232.8713","160.6713","39360","39360","37415.7294","dc","null","null","null","null","null","null","[2,1]"
"","canvas-keyboard-response","121","157057","0.0-6.0-1.19","45","","","","","clear_screen","null","null","","","critical","c","d","t","164","240","232.8713","160.6713","240","164","trueblood","0.05","w","240","164","164","240","232.8713","160.6713","39360","39360","37415.7294","dc","null","null","null","null","null","null","[2,1]"
"","canvas-keyboard-response","122","158393","0.0-6.0-2.19","45","","","","","rectangles","null","null","","","critical","c","d","t","164","240","232.8713","160.6713","240","164","trueblood","0.05","w","240","164","164","240","232.8713","160.6713","39360","39360","37415.7294","dc","null","null","null","null","null","null","[2,1]"
"","canvas-keyboard-response","123","158555","0.0-6.0-3.19","45","","","","","clear_screen","null","null","","","critical","c","d","t","164","240","232.8713","160.6713","240","164","trueblood","0.05","w","240","164","164","240","232.8713","160.6713","39360","39360","37415.7294","dc","null","null","null","null","null","null","[2,1]"
"","canvas-keyboard-response","124","160649","0.0-6.0-4.19","45","","","","","make choice","2086","2","","","critical","c","d","t","164","240","232.8713","160.6713","240","164","trueblood","0.05","w","240","164","164","240","232.8713","160.6713","39360","39360","37415.7294","dc","null","null","null","null","null","null","[2,1]"
"","canvas-keyboard-response","125","160807","0.0-6.0-5.19","45","","","","","clear_screen","null","null","","","critical","c","d","t","164","240","232.8713","160.6713","240","164","trueblood","0.05","w","240","164","164","240","232.8713","160.6713","39360","39360","37415.7294","dc","null","null","null","null","null","null","[2,1]"
"","canvas-keyboard-response","126","161008","0.0-6.0-0.20","45","","","","","pre trial waiting period","null","null","","","catch","l","sw","sh","199","293","194","221","215","145","trueblood","null","null","null","null","null","null","null","null","null","null","null","","180","200","260","200","36000","52000","[1,2]"
"","canvas-keyboard-response","127","161167","0.0-6.0-1.20","45","","","","","clear_screen","null","null","","","catch","l","sw","sh","199","293","194","221","215","145","trueblood","null","null","null","null","null","null","null","null","null","null","null","","180","200","260","200","36000","52000","[1,2]"
"","canvas-keyboard-response","128","162502","0.0-6.0-2.20","45","","","","","rectangles","null","null","","","catch","l","sw","sh","199","293","194","221","215","145","trueblood","null","null","null","null","null","null","null","null","null","null","null","","180","200","260","200","36000","52000","[1,2]"
"","canvas-keyboard-response","129","162662","0.0-6.0-3.20","45","","","","","clear_screen","null","null","","","catch","l","sw","sh","199","293","194","221","215","145","trueblood","null","null","null","null","null","null","null","null","null","null","null","","180","200","260","200","36000","52000","[1,2]"
"","canvas-keyboard-response","130","163601","0.0-6.0-4.20","45","","","","","make choice","927","1","","","catch","l","sw","sh","199","293","194","221","215","145","trueblood","null","null","null","null","null","null","null","null","null","null","null","","180","200","260","200","36000","52000","[1,2]"
"","canvas-keyboard-response","131","163761","0.0-6.0-5.20","45","","","","","clear_screen","null","null","","","catch","l","sw","sh","199","293","194","221","215","145","trueblood","null","null","null","null","null","null","null","null","null","null","null","","180","200","260","200","36000","52000","[1,2]"
"","canvas-keyboard-response","132","163962","0.0-6.0-0.21","45","","","","","pre trial waiting period","null","null","","","critical","t","c","d","240","164","164","240","237.1485","162.6685","trueblood","0.02","w","240","164","164","240","237.1485","162.6685","39360","39360","38576.5967","td","null","null","null","null","null","null","[1,3]"
"","canvas-keyboard-response","133","164122","0.0-6.0-1.21","45","","","","","clear_screen","null","null","","","critical","t","c","d","240","164","164","240","237.1485","162.6685","trueblood","0.02","w","240","164","164","240","237.1485","162.6685","39360","39360","38576.5967","td","null","null","null","null","null","null","[1,3]"
"","canvas-keyboard-response","134","165460","0.0-6.0-2.21","45","","","","","rectangles","null","null","","","critical","t","c","d","240","164","164","240","237.1485","162.6685","trueblood","0.02","w","240","164","164","240","237.1485","162.6685","39360","39360","38576.5967","td","null","null","null","null","null","null","[1,3]"
"","canvas-keyboard-response","135","165623","0.0-6.0-3.21","45","","","","","clear_screen","null","null","","","critical","t","c","d","240","164","164","240","237.1485","162.6685","trueblood","0.02","w","240","164","164","240","237.1485","162.6685","39360","39360","38576.5967","td","null","null","null","null","null","null","[1,3]"
"","canvas-keyboard-response","136","167105","0.0-6.0-4.21","45","","","","","make choice","1472","1","","","critical","t","c","d","240","164","164","240","237.1485","162.6685","trueblood","0.02","w","240","164","164","240","237.1485","162.6685","39360","39360","38576.5967","td","null","null","null","null","null","null","[1,3]"
"","canvas-keyboard-response","137","167263","0.0-6.0-5.21","45","","","","","clear_screen","null","null","","","critical","t","c","d","240","164","164","240","237.1485","162.6685","trueblood","0.02","w","240","164","164","240","237.1485","162.6685","39360","39360","38576.5967","td","null","null","null","null","null","null","[1,3]"
"","canvas-keyboard-response","138","167464","0.0-6.0-0.22","45","","","","","pre trial waiting period","null","null","","","critical","c","d","t","240","164","164","240","164","240","trueblood","0","h","164","240","240","164","164","240","39360","39360","39360","dc","null","null","null","null","null","null","[2,1]"
"","canvas-keyboard-response","139","167628","0.0-6.0-1.22","45","","","","","clear_screen","null","null","","","critical","c","d","t","240","164","164","240","164","240","trueblood","0","h","164","240","240","164","164","240","39360","39360","39360","dc","null","null","null","null","null","null","[2,1]"
"","canvas-keyboard-response","140","168965","0.0-6.0-2.22","45","","","","","rectangles","null","null","","","critical","c","d","t","240","164","164","240","164","240","trueblood","0","h","164","240","240","164","164","240","39360","39360","39360","dc","null","null","null","null","null","null","[2,1]"
"","canvas-keyboard-response","141","169123","0.0-6.0-3.22","45","","","","","clear_screen","null","null","","","critical","c","d","t","240","164","164","240","164","240","trueblood","0","h","164","240","240","164","164","240","39360","39360","39360","dc","null","null","null","null","null","null","[2,1]"
"","canvas-keyboard-response","142","173194","0.0-6.0-4.22","45","","","","","make choice","4059","2","","","critical","c","d","t","240","164","164","240","164","240","trueblood","0","h","164","240","240","164","164","240","39360","39360","39360","dc","null","null","null","null","null","null","[2,1]"
"","canvas-keyboard-response","143","173350","0.0-6.0-5.22","45","","","","","clear_screen","null","null","","","critical","c","d","t","240","164","164","240","164","240","trueblood","0","h","164","240","240","164","164","240","39360","39360","39360","dc","null","null","null","null","null","null","[2,1]"
"","canvas-keyboard-response","144","173551","0.0-6.0-0.23","45","","","","","pre trial waiting period","null","null","","","catch","l","sw","sh","242","233","158","203","225","160","spektor","null","null","null","null","null","null","null","null","null","null","null","","180","200","260","200","36000","52000","[1,3]"
"","canvas-keyboard-response","145","173713","0.0-6.0-1.23","45","","","","","clear_screen","null","null","","","catch","l","sw","sh","242","233","158","203","225","160","spektor","null","null","null","null","null","null","null","null","null","null","null","","180","200","260","200","36000","52000","[1,3]"
"","canvas-keyboard-response","146","175051","0.0-6.0-2.23","45","","","","","rectangles","null","null","","","catch","l","sw","sh","242","233","158","203","225","160","spektor","null","null","null","null","null","null","null","null","null","null","null","","180","200","260","200","36000","52000","[1,3]"
"","canvas-keyboard-response","147","175211","0.0-6.0-3.23","45","","","","","clear_screen","null","null","","","catch","l","sw","sh","242","233","158","203","225","160","spektor","null","null","null","null","null","null","null","null","null","null","null","","180","200","260","200","36000","52000","[1,3]"
"","canvas-keyboard-response","148","176258","0.0-6.0-4.23","45","","","","","make choice","1032","1","","","catch","l","sw","sh","242","233","158","203","225","160","spektor","null","null","null","null","null","null","null","null","null","null","null","","180","200","260","200","36000","52000","[1,3]"
"","canvas-keyboard-response","149","176416","0.0-6.0-5.23","45","","","","","clear_screen","null","null","","","catch","l","sw","sh","242","233","158","203","225","160","spektor","null","null","null","null","null","null","null","null","null","null","null","","180","200","260","200","36000","52000","[1,3]"
"","canvas-keyboard-response","150","176618","0.0-6.0-0.24","45","","","","","pre trial waiting period","null","null","","","critical","d","t","c","240","164","240","164","164","240","spektor","0","w","240","164","164","240","240","164","39360","39360","39360","td","null","null","null","null","null","null","[2,1]"
"","canvas-keyboard-response","151","176780","0.0-6.0-1.24","45","","","","","clear_screen","null","null","","","critical","d","t","c","240","164","240","164","164","240","spektor","0","w","240","164","164","240","240","164","39360","39360","39360","td","null","null","null","null","null","null","[2,1]"
"","canvas-keyboard-response","152","178116","0.0-6.0-2.24","45","","","","","rectangles","null","null","","","critical","d","t","c","240","164","240","164","164","240","spektor","0","w","240","164","164","240","240","164","39360","39360","39360","td","null","null","null","null","null","null","[2,1]"
"","canvas-keyboard-response","153","178273","0.0-6.0-3.24","45","","","","","clear_screen","null","null","","","critical","d","t","c","240","164","240","164","164","240","spektor","0","w","240","164","164","240","240","164","39360","39360","39360","td","null","null","null","null","null","null","[2,1]"
"","canvas-keyboard-response","154","179770","0.0-6.0-4.24","45","","","","","make choice","1485","1","","","critical","d","t","c","240","164","240","164","164","240","spektor","0","w","240","164","164","240","240","164","39360","39360","39360","td","null","null","null","null","null","null","[2,1]"
"","canvas-keyboard-response","155","179927","0.0-6.0-5.24","45","","","","","clear_screen","null","null","","","critical","d","t","c","240","164","240","164","164","240","spektor","0","w","240","164","164","240","240","164","39360","39360","39360","td","null","null","null","null","null","null","[2,1]"
"","canvas-keyboard-response","156","180130","0.0-6.0-0.25","45","","","","","pre trial waiting period","null","null","","","catch","sh","l","sw","184","201","203","254","189","235","spektor","null","null","null","null","null","null","null","null","null","null","null","","180","200","260","200","36000","52000","[2,3]"
"","canvas-keyboard-response","157","180286","0.0-6.0-1.25","45","","","","","clear_screen","null","null","","","catch","sh","l","sw","184","201","203","254","189","235","spektor","null","null","null","null","null","null","null","null","null","null","null","","180","200","260","200","36000","52000","[2,3]"
"","canvas-keyboard-response","158","181621","0.0-6.0-2.25","45","","","","","rectangles","null","null","","","catch","sh","l","sw","184","201","203","254","189","235","spektor","null","null","null","null","null","null","null","null","null","null","null","","180","200","260","200","36000","52000","[2,3]"
"","canvas-keyboard-response","159","181782","0.0-6.0-3.25","45","","","","","clear_screen","null","null","","","catch","sh","l","sw","184","201","203","254","189","235","spektor","null","null","null","null","null","null","null","null","null","null","null","","180","200","260","200","36000","52000","[2,3]"
"","canvas-keyboard-response","160","184353","0.0-6.0-4.25","45","","","","","make choice","2559","2","","","catch","sh","l","sw","184","201","203","254","189","235","spektor","null","null","null","null","null","null","null","null","null","null","null","","180","200","260","200","36000","52000","[2,3]"
"","canvas-keyboard-response","161","184512","0.0-6.0-5.25","45","","","","","clear_screen","null","null","","","catch","sh","l","sw","184","201","203","254","189","235","spektor","null","null","null","null","null","null","null","null","null","null","null","","180","200","260","200","36000","52000","[2,3]"
"","canvas-keyboard-response","162","184714","0.0-6.0-0.26","45","","","","","pre trial waiting period","null","null","","","critical","t","c","d","240","164","164","240","220.0396","154.6796","trueblood","0.14","w","240","164","164","240","220.0396","154.6796","39360","39360","34035.6388","td","null","null","null","null","null","null","[1,3]"
"","canvas-keyboard-response","163","184877","0.0-6.0-1.26","45","","","","","clear_screen","null","null","","","critical","t","c","d","240","164","164","240","220.0396","154.6796","trueblood","0.14","w","240","164","164","240","220.0396","154.6796","39360","39360","34035.6388","td","null","null","null","null","null","null","[1,3]"
"","canvas-keyboard-response","164","186215","0.0-6.0-2.26","45","","","","","rectangles","null","null","","","critical","t","c","d","240","164","164","240","220.0396","154.6796","trueblood","0.14","w","240","164","164","240","220.0396","154.6796","39360","39360","34035.6388","td","null","null","null","null","null","null","[1,3]"
"","canvas-keyboard-response","165","186375","0.0-6.0-3.26","45","","","","","clear_screen","null","null","","","critical","t","c","d","240","164","164","240","220.0396","154.6796","trueblood","0.14","w","240","164","164","240","220.0396","154.6796","39360","39360","34035.6388","td","null","null","null","null","null","null","[1,3]"
"","canvas-keyboard-response","166","187481","0.0-6.0-4.26","45","","","","","make choice","1097","1","","","critical","t","c","d","240","164","164","240","220.0396","154.6796","trueblood","0.14","w","240","164","164","240","220.0396","154.6796","39360","39360","34035.6388","td","null","null","null","null","null","null","[1,3]"
"","canvas-keyboard-response","167","187642","0.0-6.0-5.26","45","","","","","clear_screen","null","null","","","critical","t","c","d","240","164","164","240","220.0396","154.6796","trueblood","0.14","w","240","164","164","240","220.0396","154.6796","39360","39360","34035.6388","td","null","null","null","null","null","null","[1,3]"
"","canvas-keyboard-response","168","187845","0.0-6.0-0.27","45","","","","","pre trial waiting period","null","null","","","critical","c","t","d","240","164","164","240","162.6685","237.1485","trueblood","0.02","h","164","240","240","164","162.6685","237.1485","39360","39360","38576.5967","tc","null","null","null","null","null","null","[2,1]"
"","canvas-keyboard-response","169","188004","0.0-6.0-1.27","45","","","","","clear_screen","null","null","","","critical","c","t","d","240","164","164","240","162.6685","237.1485","trueblood","0.02","h","164","240","240","164","162.6685","237.1485","39360","39360","38576.5967","tc","null","null","null","null","null","null","[2,1]"
"","canvas-keyboard-response","170","189340","0.0-6.0-2.27","45","","","","","rectangles","null","null","","","critical","c","t","d","240","164","164","240","162.6685","237.1485","trueblood","0.02","h","164","240","240","164","162.6685","237.1485","39360","39360","38576.5967","tc","null","null","null","null","null","null","[2,1]"
"","canvas-keyboard-response","171","189498","0.0-6.0-3.27","45","","","","","clear_screen","null","null","","","critical","c","t","d","240","164","164","240","162.6685","237.1485","trueblood","0.02","h","164","240","240","164","162.6685","237.1485","39360","39360","38576.5967","tc","null","null","null","null","null","null","[2,1]"
"","canvas-keyboard-response","172","191042","0.0-6.0-4.27","45","","","","","make choice","1535","2","","","critical","c","t","d","240","164","164","240","162.6685","237.1485","trueblood","0.02","h","164","240","240","164","162.6685","237.1485","39360","39360","38576.5967","tc","null","null","null","null","null","null","[2,1]"
"","canvas-keyboard-response","173","191200","0.0-6.0-5.27","45","","","","","clear_screen","null","null","","","critical","c","t","d","240","164","164","240","162.6685","237.1485","trueblood","0.02","h","164","240","240","164","162.6685","237.1485","39360","39360","38576.5967","tc","null","null","null","null","null","null","[2,1]"
"","canvas-keyboard-response","174","191401","0.0-6.0-0.28","45","","","","","pre trial waiting period","null","null","","","catch","sw","l","sh","180","200","278","203","160","192","trueblood","null","null","null","null","null","null","null","null","null","null","null","","180","200","260","200","36000","52000","[1,2]"
"","canvas-keyboard-response","175","191563","0.0-6.0-1.28","45","","","","","clear_screen","null","null","","","catch","sw","l","sh","180","200","278","203","160","192","trueblood","null","null","null","null","null","null","null","null","null","null","null","","180","200","260","200","36000","52000","[1,2]"
"","canvas-keyboard-response","176","192898","0.0-6.0-2.28","45","","","","","rectangles","null","null","","","catch","sw","l","sh","180","200","278","203","160","192","trueblood","null","null","null","null","null","null","null","null","null","null","null","","180","200","260","200","36000","52000","[1,2]"
"","canvas-keyboard-response","177","193057","0.0-6.0-3.28","45","","","","","clear_screen","null","null","","","catch","sw","l","sh","180","200","278","203","160","192","trueblood","null","null","null","null","null","null","null","null","null","null","null","","180","200","260","200","36000","52000","[1,2]"
"","canvas-keyboard-response","178","193753","0.0-6.0-4.28","45","","","","","make choice","686","2","","","catch","sw","l","sh","180","200","278","203","160","192","trueblood","null","null","null","null","null","null","null","null","null","null","null","","180","200","260","200","36000","52000","[1,2]"
"","canvas-keyboard-response","179","193910","0.0-6.0-5.28","45","","","","","clear_screen","null","null","","","catch","sw","l","sh","180","200","278","203","160","192","trueblood","null","null","null","null","null","null","null","null","null","null","null","","180","200","260","200","36000","52000","[1,2]"
"","canvas-keyboard-response","180","194112","0.0-6.0-0.29","45","","","","","pre trial waiting period","null","null","","","critical","t","c","d","164","240","240","164","154.6796","220.0396","spektor","0.14","h","164","240","240","164","154.6796","220.0396","39360","39360","34035.6388","dc","null","null","null","null","null","null","[3,2]"
"","canvas-keyboard-response","181","194271","0.0-6.0-1.29","45","","","","","clear_screen","null","null","","","critical","t","c","d","164","240","240","164","154.6796","220.0396","spektor","0.14","h","164","240","240","164","154.6796","220.0396","39360","39360","34035.6388","dc","null","null","null","null","null","null","[3,2]"
"","canvas-keyboard-response","182","195609","0.0-6.0-2.29","45","","","","","rectangles","null","null","","","critical","t","c","d","164","240","240","164","154.6796","220.0396","spektor","0.14","h","164","240","240","164","154.6796","220.0396","39360","39360","34035.6388","dc","null","null","null","null","null","null","[3,2]"
"","canvas-keyboard-response","183","195772","0.0-6.0-3.29","45","","","","","clear_screen","null","null","","","critical","t","c","d","164","240","240","164","154.6796","220.0396","spektor","0.14","h","164","240","240","164","154.6796","220.0396","39360","39360","34035.6388","dc","null","null","null","null","null","null","[3,2]"
"","canvas-keyboard-response","184","197161","0.0-6.0-4.29","45","","","","","make choice","1379","3","","","critical","t","c","d","164","240","240","164","154.6796","220.0396","spektor","0.14","h","164","240","240","164","154.6796","220.0396","39360","39360","34035.6388","dc","null","null","null","null","null","null","[3,2]"
"","canvas-keyboard-response","185","197318","0.0-6.0-5.29","45","","","","","clear_screen","null","null","","","critical","t","c","d","164","240","240","164","154.6796","220.0396","spektor","0.14","h","164","240","240","164","154.6796","220.0396","39360","39360","34035.6388","dc","null","null","null","null","null","null","[3,2]"
"","canvas-keyboard-response","186","197520","0.0-6.0-0.30","45","","","","","pre trial waiting period","null","null","","","critical","t","c","d","164","240","240","164","158.0083","227.1683","trueblood","0.09","h","164","240","240","164","158.0083","227.1683","39360","39360","35894.4834","dc","null","null","null","null","null","null","[3,2]"
"","canvas-keyboard-response","187","197683","0.0-6.0-1.30","45","","","","","clear_screen","null","null","","","critical","t","c","d","164","240","240","164","158.0083","227.1683","trueblood","0.09","h","164","240","240","164","158.0083","227.1683","39360","39360","35894.4834","dc","null","null","null","null","null","null","[3,2]"
"","canvas-keyboard-response","188","199023","0.0-6.0-2.30","45","","","","","rectangles","null","null","","","critical","t","c","d","164","240","240","164","158.0083","227.1683","trueblood","0.09","h","164","240","240","164","158.0083","227.1683","39360","39360","35894.4834","dc","null","null","null","null","null","null","[3,2]"
"","canvas-keyboard-response","189","199184","0.0-6.0-3.30","45","","","","","clear_screen","null","null","","","critical","t","c","d","164","240","240","164","158.0083","227.1683","trueblood","0.09","h","164","240","240","164","158.0083","227.1683","39360","39360","35894.4834","dc","null","null","null","null","null","null","[3,2]"
"","canvas-keyboard-response","190","200121","0.0-6.0-4.30","45","","","","","make choice","927","2","","","critical","t","c","d","164","240","240","164","158.0083","227.1683","trueblood","0.09","h","164","240","240","164","158.0083","227.1683","39360","39360","35894.4834","dc","null","null","null","null","null","null","[3,2]"
"","canvas-keyboard-response","191","200280","0.0-6.0-5.30","45","","","","","clear_screen","null","null","","","critical","t","c","d","164","240","240","164","158.0083","227.1683","trueblood","0.09","h","164","240","240","164","158.0083","227.1683","39360","39360","35894.4834","dc","null","null","null","null","null","null","[3,2]"
"","canvas-keyboard-response","192","200482","0.0-6.0-0.31","45","","","","","pre trial waiting period","null","null","","","catch","l","sw","sh","287","219","174","169","205","150","spektor","null","null","null","null","null","null","null","null","null","null","null","","180","200","260","200","36000","52000","[1,2]"
"","canvas-keyboard-response","193","200643","0.0-6.0-1.31","45","","","","","clear_screen","null","null","","","catch","l","sw","sh","287","219","174","169","205","150","spektor","null","null","null","null","null","null","null","null","null","null","null","","180","200","260","200","36000","52000","[1,2]"
"","canvas-keyboard-response","194","201980","0.0-6.0-2.31","45","","","","","rectangles","null","null","","","catch","l","sw","sh","287","219","174","169","205","150","spektor","null","null","null","null","null","null","null","null","null","null","null","","180","200","260","200","36000","52000","[1,2]"
"","canvas-keyboard-response","195","202139","0.0-6.0-3.31","45","","","","","clear_screen","null","null","","","catch","l","sw","sh","287","219","174","169","205","150","spektor","null","null","null","null","null","null","null","null","null","null","null","","180","200","260","200","36000","52000","[1,2]"
"","canvas-keyboard-response","196","202873","0.0-6.0-4.31","45","","","","","make choice","725","1","","","catch","l","sw","sh","287","219","174","169","205","150","spektor","null","null","null","null","null","null","null","null","null","null","null","","180","200","260","200","36000","52000","[1,2]"
"","canvas-keyboard-response","197","203031","0.0-6.0-5.31","45","","","","","clear_screen","null","null","","","catch","l","sw","sh","287","219","174","169","205","150","spektor","null","null","null","null","null","null","null","null","null","null","null","","180","200","260","200","36000","52000","[1,2]"
"","canvas-keyboard-response","198","203232","0.0-6.0-0.32","45","","","","","pre trial waiting period","null","null","","","critical","d","t","c","227.1683","158.0083","240","164","164","240","trueblood","0.09","w","240","164","164","240","227.1683","158.0083","39360","39360","35894.4834","td","null","null","null","null","null","null","[2,1]"
"","canvas-keyboard-response","199","203395","0.0-6.0-1.32","45","","","","","clear_screen","null","null","","","critical","d","t","c","227.1683","158.0083","240","164","164","240","trueblood","0.09","w","240","164","164","240","227.1683","158.0083","39360","39360","35894.4834","td","null","null","null","null","null","null","[2,1]"
"","canvas-keyboard-response","200","204730","0.0-6.0-2.32","45","","","","","rectangles","null","null","","","critical","d","t","c","227.1683","158.0083","240","164","164","240","trueblood","0.09","w","240","164","164","240","227.1683","158.0083","39360","39360","35894.4834","td","null","null","null","null","null","null","[2,1]"
"","canvas-keyboard-response","201","204889","0.0-6.0-3.32","45","","","","","clear_screen","null","null","","","critical","d","t","c","227.1683","158.0083","240","164","164","240","trueblood","0.09","w","240","164","164","240","227.1683","158.0083","39360","39360","35894.4834","td","null","null","null","null","null","null","[2,1]"
"","canvas-keyboard-response","202","205929","0.0-6.0-4.32","45","","","","","make choice","1031","2","","","critical","d","t","c","227.1683","158.0083","240","164","164","240","trueblood","0.09","w","240","164","164","240","227.1683","158.0083","39360","39360","35894.4834","td","null","null","null","null","null","null","[2,1]"
"","canvas-keyboard-response","203","206089","0.0-6.0-5.32","45","","","","","clear_screen","null","null","","","critical","d","t","c","227.1683","158.0083","240","164","164","240","trueblood","0.09","w","240","164","164","240","227.1683","158.0083","39360","39360","35894.4834","td","null","null","null","null","null","null","[2,1]"
"","canvas-keyboard-response","204","206290","0.0-6.0-0.33","45","","","","","pre trial waiting period","null","null","","","catch","sh","l","sw","216","200","277","167","162","162","trueblood","null","null","null","null","null","null","null","null","null","null","null","","180","200","260","200","36000","52000","[2,3]"
"","canvas-keyboard-response","205","206447","0.0-6.0-1.33","45","","","","","clear_screen","null","null","","","catch","sh","l","sw","216","200","277","167","162","162","trueblood","null","null","null","null","null","null","null","null","null","null","null","","180","200","260","200","36000","52000","[2,3]"
"","canvas-keyboard-response","206","207784","0.0-6.0-2.33","45","","","","","rectangles","null","null","","","catch","sh","l","sw","216","200","277","167","162","162","trueblood","null","null","null","null","null","null","null","null","null","null","null","","180","200","260","200","36000","52000","[2,3]"
"","canvas-keyboard-response","207","207946","0.0-6.0-3.33","45","","","","","clear_screen","null","null","","","catch","sh","l","sw","216","200","277","167","162","162","trueblood","null","null","null","null","null","null","null","null","null","null","null","","180","200","260","200","36000","52000","[2,3]"
"","canvas-keyboard-response","208","209178","0.0-6.0-4.33","45","","","","","make choice","1221","2","","","catch","sh","l","sw","216","200","277","167","162","162","trueblood","null","null","null","null","null","null","null","null","null","null","null","","180","200","260","200","36000","52000","[2,3]"
"","canvas-keyboard-response","209","209335","0.0-6.0-5.33","45","","","","","clear_screen","null","null","","","catch","sh","l","sw","216","200","277","167","162","162","trueblood","null","null","null","null","null","null","null","null","null","null","null","","180","200","260","200","36000","52000","[2,3]"
"","canvas-keyboard-response","210","209535","0.0-6.0-0.34","45","","","","","pre trial waiting period","null","null","","","critical","t","d","c","240","164","227.1683","158.0083","164","240","spektor","0.09","w","240","164","164","240","227.1683","158.0083","39360","39360","35894.4834","tc","null","null","null","null","null","null","[1,3]"
"","canvas-keyboard-response","211","209696","0.0-6.0-1.34","45","","","","","clear_screen","null","null","","","critical","t","d","c","240","164","227.1683","158.0083","164","240","spektor","0.09","w","240","164","164","240","227.1683","158.0083","39360","39360","35894.4834","tc","null","null","null","null","null","null","[1,3]"
"","canvas-keyboard-response","212","211034","0.0-6.0-2.34","45","","","","","rectangles","null","null","","","critical","t","d","c","240","164","227.1683","158.0083","164","240","spektor","0.09","w","240","164","164","240","227.1683","158.0083","39360","39360","35894.4834","tc","null","null","null","null","null","null","[1,3]"
"","canvas-keyboard-response","213","211194","0.0-6.0-3.34","45","","","","","clear_screen","null","null","","","critical","t","d","c","240","164","227.1683","158.0083","164","240","spektor","0.09","w","240","164","164","240","227.1683","158.0083","39360","39360","35894.4834","tc","null","null","null","null","null","null","[1,3]"
"","canvas-keyboard-response","214","212658","0.0-6.0-4.34","45","","","","","make choice","1454","3","","","critical","t","d","c","240","164","227.1683","158.0083","164","240","spektor","0.09","w","240","164","164","240","227.1683","158.0083","39360","39360","35894.4834","tc","null","null","null","null","null","null","[1,3]"
"","canvas-keyboard-response","215","212818","0.0-6.0-5.34","45","","","","","clear_screen","null","null","","","critical","t","d","c","240","164","227.1683","158.0083","164","240","spektor","0.09","w","240","164","164","240","227.1683","158.0083","39360","39360","35894.4834","tc","null","null","null","null","null","null","[1,3]"
"","canvas-keyboard-response","216","213019","0.0-6.0-0.35","45","","","","","pre trial waiting period","null","null","","","critical","t","c","d","240","164","164","240","227.1683","158.0083","trueblood","0.09","w","240","164","164","240","227.1683","158.0083","39360","39360","35894.4834","tc","null","null","null","null","null","null","[1,2]"
"","canvas-keyboard-response","217","213182","0.0-6.0-1.35","45","","","","","clear_screen","null","null","","","critical","t","c","d","240","164","164","240","227.1683","158.0083","trueblood","0.09","w","240","164","164","240","227.1683","158.0083","39360","39360","35894.4834","tc","null","null","null","null","null","null","[1,2]"
"","canvas-keyboard-response","218","214519","0.0-6.0-2.35","45","","","","","rectangles","null","null","","","critical","t","c","d","240","164","164","240","227.1683","158.0083","trueblood","0.09","w","240","164","164","240","227.1683","158.0083","39360","39360","35894.4834","tc","null","null","null","null","null","null","[1,2]"
"","canvas-keyboard-response","219","214681","0.0-6.0-3.35","45","","","","","clear_screen","null","null","","","critical","t","c","d","240","164","164","240","227.1683","158.0083","trueblood","0.09","w","240","164","164","240","227.1683","158.0083","39360","39360","35894.4834","tc","null","null","null","null","null","null","[1,2]"
"","canvas-keyboard-response","220","216825","0.0-6.0-4.35","45","","","","","make choice","2137","1","","","critical","t","c","d","240","164","164","240","227.1683","158.0083","trueblood","0.09","w","240","164","164","240","227.1683","158.0083","39360","39360","35894.4834","tc","null","null","null","null","null","null","[1,2]"
"","canvas-keyboard-response","221","216985","0.0-6.0-5.35","45","","","","","clear_screen","null","null","","","critical","t","c","d","240","164","164","240","227.1683","158.0083","trueblood","0.09","w","240","164","164","240","227.1683","158.0083","39360","39360","35894.4834","tc","null","null","null","null","null","null","[1,2]"
"","canvas-keyboard-response","222","217188","0.0-6.0-0.36","45","","","","","pre trial waiting period","null","null","","","critical","t","d","c","164","240","164","240","240","164","spektor","0","h","164","240","240","164","164","240","39360","39360","39360","tc","null","null","null","null","null","null","[1,3]"
"","canvas-keyboard-response","223","217349","0.0-6.0-1.36","45","","","","","clear_screen","null","null","","","critical","t","d","c","164","240","164","240","240","164","spektor","0","h","164","240","240","164","164","240","39360","39360","39360","tc","null","null","null","null","null","null","[1,3]"
"","canvas-keyboard-response","224","218683","0.0-6.0-2.36","45","","","","","rectangles","null","null","","","critical","t","d","c","164","240","164","240","240","164","spektor","0","h","164","240","240","164","164","240","39360","39360","39360","tc","null","null","null","null","null","null","[1,3]"
"","canvas-keyboard-response","225","218843","0.0-6.0-3.36","45","","","","","clear_screen","null","null","","","critical","t","d","c","164","240","164","240","240","164","spektor","0","h","164","240","240","164","164","240","39360","39360","39360","tc","null","null","null","null","null","null","[1,3]"
"","canvas-keyboard-response","226","220969","0.0-6.0-4.36","45","","","","","make choice","2114","1","","","critical","t","d","c","164","240","164","240","240","164","spektor","0","h","164","240","240","164","164","240","39360","39360","39360","tc","null","null","null","null","null","null","[1,3]"
"","canvas-keyboard-response","227","221129","0.0-6.0-5.36","45","","","","","clear_screen","null","null","","","critical","t","d","c","164","240","164","240","240","164","spektor","0","h","164","240","240","164","164","240","39360","39360","39360","tc","null","null","null","null","null","null","[1,3]"
"","canvas-keyboard-response","228","221330","0.0-6.0-0.37","45","","","","","pre trial waiting period","null","null","","","critical","d","t","c","220.0396","154.6796","240","164","164","240","spektor","0.14","w","240","164","164","240","220.0396","154.6796","39360","39360","34035.6388","td","null","null","null","null","null","null","[2,1]"
"","canvas-keyboard-response","229","221493","0.0-6.0-1.37","45","","","","","clear_screen","null","null","","","critical","d","t","c","220.0396","154.6796","240","164","164","240","spektor","0.14","w","240","164","164","240","220.0396","154.6796","39360","39360","34035.6388","td","null","null","null","null","null","null","[2,1]"
"","canvas-keyboard-response","230","222832","0.0-6.0-2.37","45","","","","","rectangles","null","null","","","critical","d","t","c","220.0396","154.6796","240","164","164","240","spektor","0.14","w","240","164","164","240","220.0396","154.6796","39360","39360","34035.6388","td","null","null","null","null","null","null","[2,1]"
"","canvas-keyboard-response","231","222994","0.0-6.0-3.37","45","","","","","clear_screen","null","null","","","critical","d","t","c","220.0396","154.6796","240","164","164","240","spektor","0.14","w","240","164","164","240","220.0396","154.6796","39360","39360","34035.6388","td","null","null","null","null","null","null","[2,1]"
"","canvas-keyboard-response","232","224953","0.0-6.0-4.37","45","","","","","make choice","1948","1","","","critical","d","t","c","220.0396","154.6796","240","164","164","240","spektor","0.14","w","240","164","164","240","220.0396","154.6796","39360","39360","34035.6388","td","null","null","null","null","null","null","[2,1]"
"","canvas-keyboard-response","233","225115","0.0-6.0-5.37","45","","","","","clear_screen","null","null","","","critical","d","t","c","220.0396","154.6796","240","164","164","240","spektor","0.14","w","240","164","164","240","220.0396","154.6796","39360","39360","34035.6388","td","null","null","null","null","null","null","[2,1]"
"","canvas-keyboard-response","234","225316","0.0-6.0-0.38","45","","","","","pre trial waiting period","null","null","","","catch","sh","l","sw","196","167","184","247","168","186","trueblood","null","null","null","null","null","null","null","null","null","null","null","","180","200","260","200","36000","52000","[2,3]"
"","canvas-keyboard-response","235","225478","0.0-6.0-1.38","45","","","","","clear_screen","null","null","","","catch","sh","l","sw","196","167","184","247","168","186","trueblood","null","null","null","null","null","null","null","null","null","null","null","","180","200","260","200","36000","52000","[2,3]"
"","canvas-keyboard-response","236","226815","0.0-6.0-2.38","45","","","","","rectangles","null","null","","","catch","sh","l","sw","196","167","184","247","168","186","trueblood","null","null","null","null","null","null","null","null","null","null","null","","180","200","260","200","36000","52000","[2,3]"
"","canvas-keyboard-response","237","226976","0.0-6.0-3.38","45","","","","","clear_screen","null","null","","","catch","sh","l","sw","196","167","184","247","168","186","trueblood","null","null","null","null","null","null","null","null","null","null","null","","180","200","260","200","36000","52000","[2,3]"
"","canvas-keyboard-response","238","227986","0.0-6.0-4.38","45","","","","","make choice","1000","2","","","catch","sh","l","sw","196","167","184","247","168","186","trueblood","null","null","null","null","null","null","null","null","null","null","null","","180","200","260","200","36000","52000","[2,3]"
"","canvas-keyboard-response","239","228146","0.0-6.0-5.38","45","","","","","clear_screen","null","null","","","catch","sh","l","sw","196","167","184","247","168","186","trueblood","null","null","null","null","null","null","null","null","null","null","null","","180","200","260","200","36000","52000","[2,3]"
"","canvas-keyboard-response","240","228347","0.0-6.0-0.39","45","","","","","pre trial waiting period","null","null","","","catch","l","sw","sh","228","283","188","164","230","200","spektor","null","null","null","null","null","null","null","null","null","null","null","","180","200","260","200","36000","52000","[1,3]"
"","canvas-keyboard-response","241","228509","0.0-6.0-1.39","45","","","","","clear_screen","null","null","","","catch","l","sw","sh","228","283","188","164","230","200","spektor","null","null","null","null","null","null","null","null","null","null","null","","180","200","260","200","36000","52000","[1,3]"
"","canvas-keyboard-response","242","229846","0.0-6.0-2.39","45","","","","","rectangles","null","null","","","catch","l","sw","sh","228","283","188","164","230","200","spektor","null","null","null","null","null","null","null","null","null","null","null","","180","200","260","200","36000","52000","[1,3]"
"","canvas-keyboard-response","243","230006","0.0-6.0-3.39","45","","","","","clear_screen","null","null","","","catch","l","sw","sh","228","283","188","164","230","200","spektor","null","null","null","null","null","null","null","null","null","null","null","","180","200","260","200","36000","52000","[1,3]"
"","canvas-keyboard-response","244","231737","0.0-6.0-4.39","45","","","","","make choice","1723","1","","","catch","l","sw","sh","228","283","188","164","230","200","spektor","null","null","null","null","null","null","null","null","null","null","null","","180","200","260","200","36000","52000","[1,3]"
"","canvas-keyboard-response","245","231895","0.0-6.0-5.39","45","","","","","clear_screen","null","null","","","catch","l","sw","sh","228","283","188","164","230","200","spektor","null","null","null","null","null","null","null","null","null","null","null","","180","200","260","200","36000","52000","[1,3]"
"","canvas-keyboard-response","246","232097","0.0-6.0-0.40","45","","","","","pre trial waiting period","null","null","","","catch","sh","sw","l","185","175","147","222","259","166","spektor","null","null","null","null","null","null","null","null","null","null","null","","180","200","260","200","36000","52000","[1,3]"
"","canvas-keyboard-response","247","232260","0.0-6.0-1.40","45","","","","","clear_screen","null","null","","","catch","sh","sw","l","185","175","147","222","259","166","spektor","null","null","null","null","null","null","null","null","null","null","null","","180","200","260","200","36000","52000","[1,3]"
"","canvas-keyboard-response","248","233598","0.0-6.0-2.40","45","","","","","rectangles","null","null","","","catch","sh","sw","l","185","175","147","222","259","166","spektor","null","null","null","null","null","null","null","null","null","null","null","","180","200","260","200","36000","52000","[1,3]"
"","canvas-keyboard-response","249","233759","0.0-6.0-3.40","45","","","","","clear_screen","null","null","","","catch","sh","sw","l","185","175","147","222","259","166","spektor","null","null","null","null","null","null","null","null","null","null","null","","180","200","260","200","36000","52000","[1,3]"
"","canvas-keyboard-response","250","234890","0.0-6.0-4.40","45","","","","","make choice","1119","3","","","catch","sh","sw","l","185","175","147","222","259","166","spektor","null","null","null","null","null","null","null","null","null","null","null","","180","200","260","200","36000","52000","[1,3]"
"","canvas-keyboard-response","251","235047","0.0-6.0-5.40","45","","","","","clear_screen","null","null","","","catch","sh","sw","l","185","175","147","222","259","166","spektor","null","null","null","null","null","null","null","null","null","null","null","","180","200","260","200","36000","52000","[1,3]"
"","canvas-keyboard-response","252","235248","0.0-6.0-0.41","45","","","","","pre trial waiting period","null","null","","","critical","t","c","d","240","164","164","240","237.1485","162.6685","spektor","0.02","w","240","164","164","240","237.1485","162.6685","39360","39360","38576.5967","dc","null","null","null","null","null","null","[3,2]"
"","canvas-keyboard-response","253","235408","0.0-6.0-1.41","45","","","","","clear_screen","null","null","","","critical","t","c","d","240","164","164","240","237.1485","162.6685","spektor","0.02","w","240","164","164","240","237.1485","162.6685","39360","39360","38576.5967","dc","null","null","null","null","null","null","[3,2]"
"","canvas-keyboard-response","254","236748","0.0-6.0-2.41","45","","","","","rectangles","null","null","","","critical","t","c","d","240","164","164","240","237.1485","162.6685","spektor","0.02","w","240","164","164","240","237.1485","162.6685","39360","39360","38576.5967","dc","null","null","null","null","null","null","[3,2]"
"","canvas-keyboard-response","255","236910","0.0-6.0-3.41","45","","","","","clear_screen","null","null","","","critical","t","c","d","240","164","164","240","237.1485","162.6685","spektor","0.02","w","240","164","164","240","237.1485","162.6685","39360","39360","38576.5967","dc","null","null","null","null","null","null","[3,2]"
"","canvas-keyboard-response","256","238417","0.0-6.0-4.41","45","","","","","make choice","1498","3","","","critical","t","c","d","240","164","164","240","237.1485","162.6685","spektor","0.02","w","240","164","164","240","237.1485","162.6685","39360","39360","38576.5967","dc","null","null","null","null","null","null","[3,2]"
"","canvas-keyboard-response","257","238574","0.0-6.0-5.41","45","","","","","clear_screen","null","null","","","critical","t","c","d","240","164","164","240","237.1485","162.6685","spektor","0.02","w","240","164","164","240","237.1485","162.6685","39360","39360","38576.5967","dc","null","null","null","null","null","null","[3,2]"
"","canvas-keyboard-response","258","238776","0.0-6.0-0.42","45","","","","","pre trial waiting period","null","null","","","critical","t","d","c","240","164","240","164","164","240","trueblood","0","w","240","164","164","240","240","164","39360","39360","39360","tc","null","null","null","null","null","null","[1,3]"
"","canvas-keyboard-response","259","238940","0.0-6.0-1.42","45","","","","","clear_screen","null","null","","","critical","t","d","c","240","164","240","164","164","240","trueblood","0","w","240","164","164","240","240","164","39360","39360","39360","tc","null","null","null","null","null","null","[1,3]"
"","canvas-keyboard-response","260","240273","0.0-6.0-2.42","45","","","","","rectangles","null","null","","","critical","t","d","c","240","164","240","164","164","240","trueblood","0","w","240","164","164","240","240","164","39360","39360","39360","tc","null","null","null","null","null","null","[1,3]"
"","canvas-keyboard-response","261","240433","0.0-6.0-3.42","45","","","","","clear_screen","null","null","","","critical","t","d","c","240","164","240","164","164","240","trueblood","0","w","240","164","164","240","240","164","39360","39360","39360","tc","null","null","null","null","null","null","[1,3]"
"","canvas-keyboard-response","262","243281","0.0-6.0-4.42","45","","","","","make choice","2835","3","","","critical","t","d","c","240","164","240","164","164","240","trueblood","0","w","240","164","164","240","240","164","39360","39360","39360","tc","null","null","null","null","null","null","[1,3]"
"","canvas-keyboard-response","263","243440","0.0-6.0-5.42","45","","","","","clear_screen","null","null","","","critical","t","d","c","240","164","240","164","164","240","trueblood","0","w","240","164","164","240","240","164","39360","39360","39360","tc","null","null","null","null","null","null","[1,3]"
"","canvas-keyboard-response","264","243640","0.0-6.0-0.43","45","","","","","pre trial waiting period","null","null","","","critical","c","t","d","240","164","164","240","160.6713","232.8713","trueblood","0.05","h","164","240","240","164","160.6713","232.8713","39360","39360","37415.7294","dc","null","null","null","null","null","null","[3,1]"
"","canvas-keyboard-response","265","243800","0.0-6.0-1.43","45","","","","","clear_screen","null","null","","","critical","c","t","d","240","164","164","240","160.6713","232.8713","trueblood","0.05","h","164","240","240","164","160.6713","232.8713","39360","39360","37415.7294","dc","null","null","null","null","null","null","[3,1]"
"","canvas-keyboard-response","266","245139","0.0-6.0-2.43","45","","","","","rectangles","null","null","","","critical","c","t","d","240","164","164","240","160.6713","232.8713","trueblood","0.05","h","164","240","240","164","160.6713","232.8713","39360","39360","37415.7294","dc","null","null","null","null","null","null","[3,1]"
"","canvas-keyboard-response","267","245297","0.0-6.0-3.43","45","","","","","clear_screen","null","null","","","critical","c","t","d","240","164","164","240","160.6713","232.8713","trueblood","0.05","h","164","240","240","164","160.6713","232.8713","39360","39360","37415.7294","dc","null","null","null","null","null","null","[3,1]"
"","canvas-keyboard-response","268","247546","0.0-6.0-4.43","45","","","","","make choice","2236","3","","","critical","c","t","d","240","164","164","240","160.6713","232.8713","trueblood","0.05","h","164","240","240","164","160.6713","232.8713","39360","39360","37415.7294","dc","null","null","null","null","null","null","[3,1]"
"","canvas-keyboard-response","269","247702","0.0-6.0-5.43","45","","","","","clear_screen","null","null","","","critical","c","t","d","240","164","164","240","160.6713","232.8713","trueblood","0.05","h","164","240","240","164","160.6713","232.8713","39360","39360","37415.7294","dc","null","null","null","null","null","null","[3,1]"
"","canvas-keyboard-response","270","247903","0.0-6.0-0.44","45","","","","","pre trial waiting period","null","null","","","critical","d","t","c","240","164","240","164","164","240","spektor","0","w","240","164","164","240","240","164","39360","39360","39360","tc","null","null","null","null","null","null","[2,3]"
"","canvas-keyboard-response","271","248067","0.0-6.0-1.44","45","","","","","clear_screen","null","null","","","critical","d","t","c","240","164","240","164","164","240","spektor","0","w","240","164","164","240","240","164","39360","39360","39360","tc","null","null","null","null","null","null","[2,3]"
"","canvas-keyboard-response","272","249403","0.0-6.0-2.44","45","","","","","rectangles","null","null","","","critical","d","t","c","240","164","240","164","164","240","spektor","0","w","240","164","164","240","240","164","39360","39360","39360","tc","null","null","null","null","null","null","[2,3]"
"","canvas-keyboard-response","273","249571","0.0-6.0-3.44","45","","","","","clear_screen","null","null","","","critical","d","t","c","240","164","240","164","164","240","spektor","0","w","240","164","164","240","240","164","39360","39360","39360","tc","null","null","null","null","null","null","[2,3]"
"","canvas-keyboard-response","274","251275","0.0-6.0-4.44","45","","","","","make choice","1698","2","","","critical","d","t","c","240","164","240","164","164","240","spektor","0","w","240","164","164","240","240","164","39360","39360","39360","tc","null","null","null","null","null","null","[2,3]"
"","canvas-keyboard-response","275","251437","0.0-6.0-5.44","45","","","","","clear_screen","null","null","","","critical","d","t","c","240","164","240","164","164","240","spektor","0","w","240","164","164","240","240","164","39360","39360","39360","tc","null","null","null","null","null","null","[2,3]"
"","canvas-keyboard-response","276","251638","0.0-6.0-0.45","45","","","","","pre trial waiting period","null","null","","","catch","l","sh","sw","244","204","226","204","204","169","spektor","null","null","null","null","null","null","null","null","null","null","null","","180","200","260","200","36000","52000","[1,3]"
"","canvas-keyboard-response","277","251801","0.0-6.0-1.45","45","","","","","clear_screen","null","null","","","catch","l","sh","sw","244","204","226","204","204","169","spektor","null","null","null","null","null","null","null","null","null","null","null","","180","200","260","200","36000","52000","[1,3]"
"","canvas-keyboard-response","278","253141","0.0-6.0-2.45","45","","","","","rectangles","null","null","","","catch","l","sh","sw","244","204","226","204","204","169","spektor","null","null","null","null","null","null","null","null","null","null","null","","180","200","260","200","36000","52000","[1,3]"
"","canvas-keyboard-response","279","253304","0.0-6.0-3.45","45","","","","","clear_screen","null","null","","","catch","l","sh","sw","244","204","226","204","204","169","spektor","null","null","null","null","null","null","null","null","null","null","null","","180","200","260","200","36000","52000","[1,3]"
"","canvas-keyboard-response","280","254194","0.0-6.0-4.45","45","","","","","make choice","881","1","","","catch","l","sh","sw","244","204","226","204","204","169","spektor","null","null","null","null","null","null","null","null","null","null","null","","180","200","260","200","36000","52000","[1,3]"
"","canvas-keyboard-response","281","254352","0.0-6.0-5.45","45","","","","","clear_screen","null","null","","","catch","l","sh","sw","244","204","226","204","204","169","spektor","null","null","null","null","null","null","null","null","null","null","null","","180","200","260","200","36000","52000","[1,3]"
"","canvas-keyboard-response","282","254554","0.0-6.0-0.46","45","","","","","pre trial waiting period","null","null","","","catch","l","sh","sw","192","247","230","215","163","175","spektor","null","null","null","null","null","null","null","null","null","null","null","","180","200","260","200","36000","52000","[1,2]"
"","canvas-keyboard-response","283","254716","0.0-6.0-1.46","45","","","","","clear_screen","null","null","","","catch","l","sh","sw","192","247","230","215","163","175","spektor","null","null","null","null","null","null","null","null","null","null","null","","180","200","260","200","36000","52000","[1,2]"
"","canvas-keyboard-response","284","256053","0.0-6.0-2.46","45","","","","","rectangles","null","null","","","catch","l","sh","sw","192","247","230","215","163","175","spektor","null","null","null","null","null","null","null","null","null","null","null","","180","200","260","200","36000","52000","[1,2]"
"","canvas-keyboard-response","285","256212","0.0-6.0-3.46","45","","","","","clear_screen","null","null","","","catch","l","sh","sw","192","247","230","215","163","175","spektor","null","null","null","null","null","null","null","null","null","null","null","","180","200","260","200","36000","52000","[1,2]"
"","canvas-keyboard-response","286","258921","0.0-6.0-4.46","45","","","","","make choice","2698","2","","","catch","l","sh","sw","192","247","230","215","163","175","spektor","null","null","null","null","null","null","null","null","null","null","null","","180","200","260","200","36000","52000","[1,2]"
"","canvas-keyboard-response","287","259081","0.0-6.0-5.46","45","","","","","clear_screen","null","null","","","catch","l","sh","sw","192","247","230","215","163","175","spektor","null","null","null","null","null","null","null","null","null","null","null","","180","200","260","200","36000","52000","[1,2]"
"","canvas-keyboard-response","288","259282","0.0-6.0-0.47","45","","","","","pre trial waiting period","null","null","","","critical","c","d","t","164","240","227.1683","158.0083","240","164","trueblood","0.09","w","240","164","164","240","227.1683","158.0083","39360","39360","35894.4834","dc","null","null","null","null","null","null","[2,1]"
"","canvas-keyboard-response","289","259442","0.0-6.0-1.47","45","","","","","clear_screen","null","null","","","critical","c","d","t","164","240","227.1683","158.0083","240","164","trueblood","0.09","w","240","164","164","240","227.1683","158.0083","39360","39360","35894.4834","dc","null","null","null","null","null","null","[2,1]"
"","canvas-keyboard-response","290","260778","0.0-6.0-2.47","45","","","","","rectangles","null","null","","","critical","c","d","t","164","240","227.1683","158.0083","240","164","trueblood","0.09","w","240","164","164","240","227.1683","158.0083","39360","39360","35894.4834","dc","null","null","null","null","null","null","[2,1]"
"","canvas-keyboard-response","291","260938","0.0-6.0-3.47","45","","","","","clear_screen","null","null","","","critical","c","d","t","164","240","227.1683","158.0083","240","164","trueblood","0.09","w","240","164","164","240","227.1683","158.0083","39360","39360","35894.4834","dc","null","null","null","null","null","null","[2,1]"
"","canvas-keyboard-response","292","262289","0.0-6.0-4.47","45","","","","","make choice","1338","1","","","critical","c","d","t","164","240","227.1683","158.0083","240","164","trueblood","0.09","w","240","164","164","240","227.1683","158.0083","39360","39360","35894.4834","dc","null","null","null","null","null","null","[2,1]"
"","canvas-keyboard-response","293","262448","0.0-6.0-5.47","45","","","","","clear_screen","null","null","","","critical","c","d","t","164","240","227.1683","158.0083","240","164","trueblood","0.09","w","240","164","164","240","227.1683","158.0083","39360","39360","35894.4834","dc","null","null","null","null","null","null","[2,1]"
"","canvas-keyboard-response","294","262650","0.0-6.0-0.48","45","","","","","pre trial waiting period","null","null","","","catch","l","sh","sw","213","294","184","188","182","205","spektor","null","null","null","null","null","null","null","null","null","null","null","","180","200","260","200","36000","52000","[1,2]"
"","canvas-keyboard-response","295","262806","0.0-6.0-1.48","45","","","","","clear_screen","null","null","","","catch","l","sh","sw","213","294","184","188","182","205","spektor","null","null","null","null","null","null","null","null","null","null","null","","180","200","260","200","36000","52000","[1,2]"
"","canvas-keyboard-response","296","264142","0.0-6.0-2.48","45","","","","","rectangles","null","null","","","catch","l","sh","sw","213","294","184","188","182","205","spektor","null","null","null","null","null","null","null","null","null","null","null","","180","200","260","200","36000","52000","[1,2]"
"","canvas-keyboard-response","297","264302","0.0-6.0-3.48","45","","","","","clear_screen","null","null","","","catch","l","sh","sw","213","294","184","188","182","205","spektor","null","null","null","null","null","null","null","null","null","null","null","","180","200","260","200","36000","52000","[1,2]"
"","canvas-keyboard-response","298","265770","0.0-6.0-4.48","45","","","","","make choice","1458","1","","","catch","l","sh","sw","213","294","184","188","182","205","spektor","null","null","null","null","null","null","null","null","null","null","null","","180","200","260","200","36000","52000","[1,2]"
"","canvas-keyboard-response","299","265930","0.0-6.0-5.48","45","","","","","clear_screen","null","null","","","catch","l","sh","sw","213","294","184","188","182","205","spektor","null","null","null","null","null","null","null","null","null","null","null","","180","200","260","200","36000","52000","[1,2]"
"","canvas-keyboard-response","300","266131","0.0-6.0-0.49","45","","","","","pre trial waiting period","null","null","","","catch","sw","sh","l","180","200","228","161","167","243","trueblood","null","null","null","null","null","null","null","null","null","null","null","","180","200","260","200","36000","52000","[2,3]"
"","canvas-keyboard-response","301","266293","0.0-6.0-1.49","45","","","","","clear_screen","null","null","","","catch","sw","sh","l","180","200","228","161","167","243","trueblood","null","null","null","null","null","null","null","null","null","null","null","","180","200","260","200","36000","52000","[2,3]"
"","canvas-keyboard-response","302","267628","0.0-6.0-2.49","45","","","","","rectangles","null","null","","","catch","sw","sh","l","180","200","228","161","167","243","trueblood","null","null","null","null","null","null","null","null","null","null","null","","180","200","260","200","36000","52000","[2,3]"
"","canvas-keyboard-response","303","267790","0.0-6.0-3.49","45","","","","","clear_screen","null","null","","","catch","sw","sh","l","180","200","228","161","167","243","trueblood","null","null","null","null","null","null","null","null","null","null","null","","180","200","260","200","36000","52000","[2,3]"
"","canvas-keyboard-response","304","269234","0.0-6.0-4.49","45","","","","","make choice","1435","2","","","catch","sw","sh","l","180","200","228","161","167","243","trueblood","null","null","null","null","null","null","null","null","null","null","null","","180","200","260","200","36000","52000","[2,3]"
"","canvas-keyboard-response","305","269390","0.0-6.0-5.49","45","","","","","clear_screen","null","null","","","catch","sw","sh","l","180","200","228","161","167","243","trueblood","null","null","null","null","null","null","null","null","null","null","null","","180","200","260","200","36000","52000","[2,3]"
"","canvas-keyboard-response","306","269592","0.0-6.0-0.50","45","","","","","pre trial waiting period","null","null","","","critical","d","t","c","160.6713","232.8713","164","240","240","164","spektor","0.05","h","164","240","240","164","160.6713","232.8713","39360","39360","37415.7294","td","null","null","null","null","null","null","[2,1]"
"","canvas-keyboard-response","307","269756","0.0-6.0-1.50","45","","","","","clear_screen","null","null","","","critical","d","t","c","160.6713","232.8713","164","240","240","164","spektor","0.05","h","164","240","240","164","160.6713","232.8713","39360","39360","37415.7294","td","null","null","null","null","null","null","[2,1]"
"","canvas-keyboard-response","308","271091","0.0-6.0-2.50","45","","","","","rectangles","null","null","","","critical","d","t","c","160.6713","232.8713","164","240","240","164","spektor","0.05","h","164","240","240","164","160.6713","232.8713","39360","39360","37415.7294","td","null","null","null","null","null","null","[2,1]"
"","canvas-keyboard-response","309","271252","0.0-6.0-3.50","45","","","","","clear_screen","null","null","","","critical","d","t","c","160.6713","232.8713","164","240","240","164","spektor","0.05","h","164","240","240","164","160.6713","232.8713","39360","39360","37415.7294","td","null","null","null","null","null","null","[2,1]"
